Time (s),Linear Acceleration x (m/s^2),Linear Acceleration y (m/s^2),Linear Acceleration z (m/s^2),Absolute acceleration (m/s^2)
0.010399458,-0.020836261,0.129224051,-1.057122796,1.065195574
0.020401458,-0.017196954,0.291800619,-1.103252649,1.1413193
0.030402458,0.017979603,0.423304792,-1.320580791,1.386882778
0.040404458,0.056813886,0.4898157,-1.453490342,1.534855502
0.050406458,-0.002333039,0.507674266,-1.567242075,1.647418079
0.060408458,-0.030096496,0.437775481,-1.659230472,1.716274724
0.070409458,0.012655421,0.314011853,-1.681607181,1.710720993
0.080411458,0.037605783,0.064474616,-1.761649716,1.763230244
0.090413458,0.045801533,0.093939028,-1.788482004,1.791532919
0.100414458,0.035075108,0.060890565,-1.653931725,1.655423835
0.110416458,0.08583391,0.020469055,-1.512149609,1.514722048
0.120418458,0.051844045,0.025529528,-1.281993846,1.283295672
0.130420458,-0.18396773,0.008326435,-0.971100898,0.988408017
0.140421458,-0.440410821,-0.051771832,-0.632251242,0.772258796
0.150423458,-0.460681071,-0.121874393,-0.287760778,0.556674665
0.160425458,-0.229707282,-0.23546679,0.326699141,0.46361878
0.170426458,0.146178637,-0.38873079,0.488055981,0.640841994
0.180428458,0.485298434,-0.339967058,0.144970602,0.610007087
0.190430458,0.551045989,-0.26612111,-0.131835417,0.625981393
0.200432458,0.386999722,-0.209782895,-0.081682679,0.447716102
0.210433458,0.177631687,-0.193441681,0.185483621,0.321522742
0.220435458,0.308683577,-0.710949503,0.172877024,0.794116623
0.230437458,0.218147044,-0.566290264,0.808991522,1.011306125
0.240438458,0.55247037,-0.138966681,0.861024724,1.032423762
0.250440458,0.502122481,-0.340667847,0.5994431,0.852944077
0.260442458,-0.091565643,-0.511064774,0.268480754,0.584511237
0.270444458,-0.29319021,-0.464498426,0.136276377,0.565942169
0.280445458,-0.414843286,-0.704308381,-0.165282075,0.83394449
0.290447458,-0.717228827,-0.970056877,-0.358293402,1.258491835
0.300449458,-0.726949385,-1.071800915,-0.547325113,1.405979156
0.310450458,-0.688166558,-0.98826613,-0.7160588,1.401065081
0.320452458,-0.622167573,-0.643439305,-0.808891534,1.206404634
0.330454458,0.464566985,-0.426068917,-0.822350655,1.0361553
0.340456458,1.231637771,-0.105260699,0.537164406,1.347797096
0.350457458,1.024720158,0.065955935,1.209108887,1.586299432
0.360459458,0.2764891,0.279762079,1.453168745,1.505460875
0.370461458,-0.026301653,0.797014524,0.783820428,1.118167425
0.380463458,0.584079395,1.322983705,-0.121913277,1.451308881
0.390464458,0.859987721,1.362892852,-0.220704909,1.626581219
0.400466458,0.633046756,1.032867376,0.024048429,1.211668906
0.410468458,0.380680929,0.835418597,0.50946673,1.04995169
0.420469458,0.274694298,0.693733619,0.407597124,0.850210977
0.430471458,-0.157754078,0.257769605,-0.508299041,0.591353899
0.440473458,-0.838180237,0.140266225,-1.527388623,1.747894942
0.450475458,-1.248917609,0.103071428,-2.214380329,2.54438581
0.460476458,-1.384082576,-0.010864054,0.153832058,1.392647446
0.470478458,-1.02566346,0.044784117,2.983276908,3.154985302
0.480480458,-0.392865649,-0.168526403,3.704048563,3.728635183
0.490482458,0.2309064,-0.340734944,5.983453438,5.997593944
0.500483458,1.550541112,-0.78912853,6.637134726,6.861374421
0.510485458,3.102684068,-1.084177351,5.373212285,6.298690278
0.520487458,3.364851291,-0.64017517,4.108219804,5.34878663
0.530488458,1.861526446,0.377603758,2.557332975,3.185563883
0.540490458,1.460754338,0.501082554,0.371049687,1.588258427
0.550492458,2.157116207,0.491232261,-1.046128861,2.44721169
0.560494458,2.696307258,0.721860992,-1.589189014,3.211958568
0.570495458,2.76420191,0.885029737,-0.660634212,2.976663803
0.580497458,2.860998765,0.852856603,-0.094676946,2.98691179
0.590499458,2.863283272,0.640508973,0.45772238,2.969537441
0.600501458,2.882320344,0.410217261,1.166580334,3.136392584
0.610502458,1.872210039,-0.067590853,0.983218083,2.11576387
0.620504458,0.162599848,-0.248359827,0.621270171,0.688547704
0.630506458,0.345433766,-0.219861083,-0.16761453,0.442445492
0.640507458,1.618927369,0.102050651,-0.51808728,1.70286658
0.650509458,1.930516427,0.266366255,-0.006948246,1.948818344
0.660511458,1.141238793,-0.738372725,-0.686471888,1.522781638
0.670513458,0.757207118,-1.810126643,-2.054829109,2.841169434
0.680514458,1.141789601,-2.29376476,-1.485874561,2.961902003
0.690516458,2.20535252,-2.101428348,0.244855079,3.056065256
0.700518458,2.900783805,-1.825753911,0.942171214,3.554660409
0.710520458,3.156796248,-2.211222832,0.656871529,3.909776103
0.720521458,2.941285129,-2.834887731,0.02831865,4.085162004
0.730523458,2.61314114,-2.92496555,-0.526669824,3.957437452
0.740525458,2.086673923,-2.944731477,-0.8662726,3.711614171
0.750527458,1.377296737,-2.808372947,-1.378404492,3.418172589
0.760528458,0.904922696,-2.590963236,-1.70909962,3.233109507
0.770530458,0.636264771,-2.472233476,-1.851526099,3.15355674
0.780532458,0.5403947,-2.522045614,-1.828270553,3.161536608
0.790534458,0.32888483,-2.698875063,-1.411597965,3.063445879
0.800535458,-0.216018073,-3.244140494,-1.593793697,3.620951491
0.810537458,-0.652389638,-3.919217036,-1.736407287,4.336010226
0.820539458,-0.864864591,-4.382989823,-1.332265282,4.661922493
0.830540458,-1.322161294,-4.449086456,-1.252021603,4.80729018
0.840542458,-1.922111932,-4.34554747,-1.73687214,5.059152293
0.850544458,-2.385545872,-4.141979873,-2.158755766,5.244716659
0.860546458,-2.626270478,-3.799813676,-2.685975228,5.343252149
0.870547458,-2.800998146,-3.283772044,-3.153095838,5.345162562
0.880549458,-2.911180739,-2.481265085,-3.680445693,5.308232306
0.890551458,-3.159411415,-1.789412004,-4.225587455,5.571307311
0.900553458,-3.663955375,-1.726252281,-4.92652594,6.377709131
0.910554583,-4.519302453,-1.740818718,-5.619316914,7.418306212
0.920556583,-5.187221126,-1.595518918,-6.182523649,8.226575369
0.930558583,-5.639318485,-1.402328667,-6.356032757,8.612060791
0.940560583,-6.101274834,-1.398904391,-6.212153245,8.81891921
0.950561583,-6.744439904,-1.503992597,-5.89248655,9.081346877
0.960563583,-7.22808533,-1.456476515,-5.213994942,9.030630356
0.970565583,-8.02639048,-1.982094132,-5.345836791,9.845283759
0.980567583,-7.841975731,-1.932553305,-4.107738578,9.061173316
0.990568583,-7.559536504,-0.926305379,-2.897059128,8.148471353
1.000570583,-7.494406707,-0.824604464,-2.528670217,7.952375587
1.010572583,-7.791378019,-1.596828986,-1.79825124,8.154087428
1.020574583,-8.094640351,-1.943838431,-0.164178706,8.326383663
1.030575583,-7.517706692,-1.45204491,1.859786314,7.879286355
1.040577583,-6.307200905,-0.599764112,4.444592578,7.739179765
1.050579583,-4.77459832,0.286972573,7.804972211,9.154055582
1.060581583,-2.247257468,0.733510984,8.665792283,8.982436216
1.070582583,0.278156726,1.151586903,9.10701499,9.183748994
1.080584583,2.131461548,1.576673049,9.808729985,10.16071898
1.090586583,3.174086173,1.707619105,10.04989839,10.6766682
1.100588583,2.876510843,0.198340479,10.18503924,10.58530481
1.110589583,2.61614544,-2.991455993,10.46019635,11.18967084
1.120591583,2.328605686,-5.869498222,10.97531967,12.66219001
1.130593583,1.919691769,-7.60057928,11.99244167,14.32734026
1.140595583,2.904492694,-6.791585419,12.63458055,14.6353796
1.150596583,5.337506847,-4.43840447,10.52340241,12.60676056
1.160598583,7.198376797,-2.696033608,9.324088193,12.0840327
1.170600583,8.976804514,-2.010562763,6.863269944,11.47736277
1.180601583,10.09641066,-1.265402371,3.559812956,10.7801215
1.190603583,10.78280127,-1.910051465,2.895220764,11.32693264
1.200605583,10.67863078,-2.230680027,3.10581993,11.34262784
1.210607583,10.01808136,-2.018580465,3.307794453,10.74142101
1.220609583,9.960381031,-1.815444685,3.234599007,10.62862458
1.230610583,9.830918999,-1.500532946,3.220034178,10.45309464
1.240612583,9.645443564,-1.318040761,3.100693091,10.21695212
1.250614583,10.03378347,-0.99921548,3.532355016,10.68423016
1.260616583,10.04754898,-1.114665245,3.694118822,10.76300298
1.270617583,9.299445103,-2.313193011,4.40774401,10.54792626
1.280619583,7.216480946,-3.748278072,5.235877562,9.671690627
1.290621583,4.957938936,-4.782623039,4.460402865,8.206694544
1.300623583,4.147416614,-4.996858004,2.678941612,7.024698046
1.310624583,3.795701914,-3.717189011,-1.025946611,5.410860709
1.320626583,4.535081164,-1.455934478,-6.607073606,8.144944935
1.330628583,5.608882558,1.822264293,-7.211805512,9.316133825
1.340630583,4.761589435,4.606402577,-7.189484351,9.776521052
1.350631583,3.442530674,5.734329307,-6.98374773,9.669864652
1.360633583,2.613380291,5.814524454,-5.622272682,8.499905957
1.370635583,1.273686122,5.46201278,-4.945330001,7.477442662
1.380637583,0.473227442,5.37661478,-4.577365889,7.077019795
1.390638583,-0.371555471,5.25353206,-4.937351475,7.219078345
1.400640583,-0.647128898,5.023388575,-5.457885815,7.445920101
1.410642583,-0.003304262,5.148157632,-4.626269077,6.921409069
1.420644583,0.830084183,5.421564665,-3.010589252,6.256680495
1.430645583,2.002032845,5.4045136,-0.827050062,5.82244919
1.440647583,2.856055529,4.997848522,1.657173421,5.990139129
1.450649583,2.640402614,3.975892051,3.92301568,6.178146614
1.460651583,2.072538571,2.180762932,5.643289914,6.395143794
1.470652583,1.75470147,0.891738394,5.8455299,6.168013815
1.480654583,1.033750305,-0.243779191,6.26699662,6.356360171
1.490656583,0.479729546,-1.108202317,5.306199685,5.441875404
1.500658583,0.502753542,-1.616126552,4.053881044,4.393014645
1.510659583,0.34146453,-2.091782928,3.72853144,4.288834403
1.520661583,0.410516054,-2.765534783,4.227084342,5.068031975
1.530663583,0.451668173,-3.954992348,4.968998945,6.36686101
1.540665583,0.355252265,-5.413676187,4.848172665,7.275910405
1.550666583,0.409201015,-7.291902426,4.802987137,8.741165363
1.560668583,-0.613016827,-8.579672152,4.967258229,9.932785016
1.570670583,-1.212982083,-8.133867567,4.309870976,9.284724818
1.580672583,-0.993374696,-6.058721137,3.492190492,7.06330585
1.590673583,-1.891388322,-3.509311139,-3.556731473,5.34256055
1.600675583,-1.421220728,-3.674010247,-4.50855644,5.987094523
1.610677583,-2.144427164,-5.395730497,-3.314028754,6.685451521
1.620679583,-2.79543452,-7.496747932,-4.385301227,9.123954766
1.630680583,-1.481263447,-9.198018131,-3.886876963,10.09482498
1.640682583,0.534529651,-8.274794819,-3.760885254,9.105065027
1.650684583,2.87985165,-6.328817477,-3.675905037,7.865097203
1.660686583,4.051050699,-5.763318048,-4.540089597,8.380886602
1.670688583,4.922879031,-3.983575292,-5.1469648,8.160567181
1.680689583,5.832253797,-1.781261863,-3.181282341,6.878127326
1.690691583,6.399255375,-0.707567473,-1.554869952,6.623348221
1.700693583,7.524776561,-2.739279615,2.150783672,8.291669645
1.710695583,8.298299457,-4.458534679,6.829331535,11.63529435
1.720696583,7.591145382,-4.124433548,8.500779764,12.12021852
1.730698583,6.071814222,-4.592164607,7.049964523,10.37578448
1.740700583,4.661761384,-6.498446957,6.988729557,10.62093089
1.750702583,3.908241812,-6.90056407,7.758045967,11.09411627
1.760703583,2.153049322,-4.265932074,1.123272346,4.908720669
1.770705583,-0.007633467,-1.855869411,-6.469955814,6.730871992
1.780707583,-3.02412351,-0.534767632,2.733597876,4.111430015
1.790709583,-3.349869263,-1.179448886,9.425686489,10.07255129
1.800710583,-2.926053132,-3.379429861,4.022593762,6.013617355
1.810712583,-6.006527721,-7.689302006,1.580669037,9.884445114
1.820714583,-11.46324994,-9.271635745,2.168628205,14.90208968
1.830716583,-11.85504847,-5.541355403,0.042443769,13.08627508
1.840717583,-4.732409197,4.888198026,-10.45042916,12.47002993
1.850719583,-2.41620794,7.126555447,-17.68210409,19.21672861
1.860721583,-2.858839096,6.793577566,-15.31726555,16.99836113
1.870723583,-1.601276525,5.194934773,-13.2449024,14.31708327
1.880725583,0.501324483,2.599195531,-11.45275419,11.75468937
1.890726583,1.846783422,1.526509786,-4.945267435,5.495135225
1.900728583,2.012415015,1.278810622,4.295241827,4.912664567
1.910729958,5.845711749,1.810894967,0.745446905,6.16501237
1.920731958,8.230320312,1.946246899,0.290772679,8.462304544
1.930732958,9.845092649,3.568884911,-1.485829538,10.57688414
1.940734958,11.88411966,5.41765931,-3.962657463,13.64866245
1.950736958,11.12360039,6.216346868,-4.534426276,13.52547506
1.960738958,8.548066197,6.064347913,-3.584337348,11.07669741
1.970739958,7.045300784,7.188296782,-3.444309397,10.63819256
1.980741958,4.155677852,5.983962146,-2.326121789,7.647764638
1.990743958,2.622873246,5.06660827,-2.222418496,6.122836548
2.000745958,3.533590533,5.33341672,-0.724213327,6.438639678
2.010746958,4.935244138,4.317425578,-1.074082645,6.644580638
2.020748958,5.767868936,3.022387179,-1.057525669,6.597082451
2.030750958,4.489679874,1.933381855,-2.477467026,5.48024029
2.040752958,1.709592248,1.178921467,-2.724389681,3.425618282
2.050753958,0.908895879,1.813608075,-3.41518617,3.972249053
2.060755958,0.237096409,1.30721581,-3.014328547,3.294116645
2.070757958,0.594827893,0.37385869,-2.359567278,2.461939943
2.080759958,1.123047521,-0.953104922,-2.033784395,2.51115983
2.090761958,-0.109003209,-2.053072021,-1.971255441,2.848303782
2.100762958,-1.486201128,-1.761578965,-2.709662883,3.557278058
2.110764958,-3.31757012,0.275234873,-1.175119607,3.530287783
2.120766958,-5.844710705,-1.436428751,-2.361365297,6.465293253
2.130768958,-5.269085653,0.16043181,-0.84336087,5.338563435
2.140769958,-4.252266254,-0.745534614,-3.120785878,5.326996776
2.150771958,-2.713740439,-0.330305704,-1.391243223,3.067416948
2.160773958,0.714278615,1.783607181,0.749527677,2.06233854
2.170775958,3.923617651,2.5542895,2.115957071,5.13774704
2.180776958,5.422700779,2.881397361,5.693796408,8.374213517
2.190778958,2.615632054,1.886326972,7.786797311,8.42816545
2.200780958,0.349576665,-0.557132063,5.417789118,5.457567124
2.210782958,0.939107857,-0.41475587,2.122174123,2.357449683
2.220784958,1.87326517,0.717263326,-1.932118272,2.785079908
2.230785958,3.216650394,2.996931911,-5.35705175,6.930111405
2.240787958,3.760726209,3.446143668,-5.522670041,7.517902113
2.250789958,4.606830886,2.761009623,-4.909033409,7.276309089
2.260791958,4.701650797,0.998257706,-3.118123056,5.729287046
2.270792958,2.876834779,-3.183293198,-1.64512114,4.595210278
2.280794958,0.960581611,-9.829737861,2.097582196,10.09684676
2.290796958,-0.821864752,-11.93138621,4.432647886,12.7546778
2.300798958,1.199521062,-5.84255776,2.208482242,6.360167119
2.310799958,4.954120705,-2.871134913,0.127334523,5.727385243
2.320801958,11.00341555,-0.909809214,-1.551119547,11.14938915
2.330803958,14.15415262,3.258169134,-1.177042757,14.57192959
2.340805958,6.042444828,-4.317806232,-0.310306618,7.433093592
2.350807958,1.455974531,-6.568124133,0.74395338,6.768573195
2.360808958,-1.85413995,-6.239477869,2.897200046,7.124793831
2.370810958,-3.753718614,-5.490959421,2.057463865,6.962341298
2.380812958,-4.742948511,-2.954015687,-0.178238336,5.590486398
2.390814958,-1.179352845,2.874391227,-2.690503896,4.109964632
2.400815958,-4.155876365,1.821973686,-3.146663901,5.521991505
2.410817958,-15.51084347,-3.420031173,2.015907118,16.01083258
2.420819958,-14.55942664,-4.016553004,1.011751764,15.13714781
2.430821958,-6.988427256,-0.030946389,-0.365104238,6.998026458
2.440822958,-4.733809898,3.242217929,-0.338323406,5.747642645
2.450824958,-5.70479619,4.061664273,-0.660733322,7.034087344
2.460826958,-6.145637659,4.594929171,-1.303439386,7.783391969
2.470828958,-6.755154927,4.617432765,-1.935126665,8.408181648
2.480830958,-6.977830347,4.517675173,-2.036165382,8.558357014
2.490831958,-5.178352654,4.109296861,-2.102748211,6.937089227
2.500833958,-2.89983831,3.159076955,0.273598676,4.296939104
2.510835958,0.563848175,1.488689411,2.275643946,2.777170556
2.520837958,4.546112521,-0.871467267,1.76161171,4.952763882
2.530838958,6.500763624,-2.372798942,1.617723281,7.106836928
2.540840958,6.330168183,-3.448560907,0.683457649,7.240905739
2.550842958,7.140750732,-3.976167455,0.78215748,8.210481044
2.560844958,4.633098917,-4.840798742,-0.130077013,6.701929428
2.570846958,2.741859114,-4.997267309,-0.817637215,5.758385414
2.580847958,2.774475176,-4.086301516,-0.762802172,4.997743464
2.590849958,3.180912212,-3.564246899,-0.58946775,4.813473869
2.600851958,3.217808143,-3.162360751,-0.21858237,4.516922959
2.610853958,2.162778212,-2.4984176,0.496154374,3.341536961
2.620854958,0.785533223,-1.2389981,2.674828681,3.050719129
2.630856958,-0.049030073,0.352098861,1.254958659,1.30433845
2.640858958,-0.78549507,1.727931747,-0.227360795,1.911659897
2.650860958,-1.850899862,2.782185314,-0.007599188,3.341622835
2.660862958,-1.551862729,2.755857641,-0.946227573,3.30126883
2.670863958,-1.410405426,2.183183094,-0.609223884,2.669585292
2.680865958,-1.204928713,1.971298125,0.506168755,2.365179974
2.690867958,-0.863703918,1.896587082,0.561086389,2.158204103
2.700869958,-0.432240945,2.135554014,-1.581571408,2.692357945
2.710870958,-0.055070246,2.176878042,-2.657377081,3.435619841
2.720872958,0.464899399,4.058610857,-1.758359488,4.447502853
2.730874958,1.117626567,7.01427195,-1.020540422,7.175695289
2.740876958,1.185953475,8.761676679,-0.902433098,8.887510865
2.750878958,0.753825819,9.532410454,-1.001794687,9.614504408
2.760879958,0.318799699,10.15806604,-1.223736867,10.23647746
2.770881958,0.495448908,9.37182954,-0.954443204,9.43332499
2.780883958,-0.046410812,7.908677258,-0.87484915,7.957052908
2.790885958,-0.641701366,5.865440254,-0.37693184,5.912465444
2.800886958,-1.040749495,3.731183737,0.356686002,3.89000212
2.810888958,-1.327938343,2.913479279,0.754813122,3.289608579
2.820890958,-0.744042331,1.699593801,0.858764044,2.044429936
2.830892958,-0.502266177,0.571408625,-1.006308884,1.26152158
2.840894958,-0.536488395,1.334742748,-3.184735706,3.494552835
2.850895958,-0.331162102,1.713496726,-3.54063175,3.947380467
2.860897958,-0.319852052,1.682139863,-2.549764924,3.07135166
2.870899958,-1.018042418,3.16889326,-0.914595891,3.451779324
2.880901958,-1.513954645,0.495849735,1.669392933,2.307552467
2.890902958,-5.817375557,-14.66721421,5.769456455,16.80046603
2.900904958,-5.611854697,-35.20375124,7.822533739,36.49642514
2.910907583,2.070886733,-36.74461652,4.44350792,37.07020607
2.920909583,5.555486369,-17.3109743,0.377339537,18.18448914
2.930911583,2.410037228,-5.313113433,0.306275109,5.842196354
2.940912583,1.298032174,-0.881616864,-1.166184623,1.955024909
2.950914583,1.081037908,0.970863501,-2.170621813,2.61205244
2.960916583,0.702683805,1.086448921,-2.412300977,2.737395074
2.970918583,0.533837267,1.08598933,-2.35794029,2.650327803
2.980919583,0.19332978,1.119048902,-1.640085518,1.994875274
2.990921583,0.248418153,1.994744291,-1.326317056,2.408284306
3.000923583,0.729158828,2.982927829,-1.156601768,3.281350131
3.010925583,0.879364151,2.846620461,-0.392560424,3.005101171
3.020927583,1.147245565,1.985261276,0.188313527,2.300629633
3.030928583,1.317717117,0.852613505,0.310005048,1.599822277
3.040930583,1.028221763,-0.220120187,0.274968824,1.086876601
3.050932583,0.715523268,-0.713680737,0.341548145,1.066756241
3.060934583,0.438535619,-0.762218474,0.216227696,0.90556331
3.070935583,0.279394216,-0.462680819,-0.004180759,0.540511006
3.080937583,0.102577266,-0.289708486,0.069774824,0.315153341
3.090939583,-0.189412073,-0.197133029,0.09206558,0.288469123
3.100941583,-0.317538747,-0.114285584,0.155243576,0.371473577
3.110943583,-0.202839326,-0.282383679,0.309386705,0.465407851
3.120944583,-0.05939894,-0.317984451,0.423267662,0.532726814
3.130946583,0.159320254,0.177239047,0.123315439,0.268334345
3.140948583,0.372041229,0.473004078,-0.214930784,0.639017039
3.150950583,0.452432697,0.642971528,-0.417330399,0.890096844
3.160951583,0.577226458,0.822743588,-0.45431053,1.102948527
3.170953583,0.560127884,0.972792497,-0.301108802,1.162211254
3.180955583,0.583390593,1.041343499,0.005030944,1.193635697
3.190957583,0.595612881,1.008037759,0.257221063,1.198773333
3.200959583,0.689333077,0.925432389,0.482022239,1.25058012
3.210960583,0.69772427,0.77479642,0.563075173,1.184981983
3.220962583,0.539535306,0.605604311,0.529547238,0.968646068
3.230964583,0.251622646,0.539795069,0.390134414,0.711967368
3.240966583,-0.00213248,0.540548775,0.218033901,0.582869031
3.250968583,0.062931828,0.542645001,0.072816254,0.551113617
3.260969583,0.323717938,0.575902795,-0.128668565,0.673062354
3.270971583,0.547664982,0.668085904,-0.069079883,0.866630104
3.280973583,0.634104956,0.757840079,0.165300786,1.001865775
3.290975583,0.645437883,0.911489119,0.391195392,1.183400317
3.300976583,0.657141085,1.088959715,0.585489597,1.400166324
3.310978583,0.769248143,1.147155299,0.762167019,1.57753179
3.320980583,1.023968498,1.19314248,0.873686724,1.798729817
3.330982583,1.218700806,1.192801588,1.003721929,1.978753394
3.340984583,1.382162643,1.166527709,1.119882569,2.12727465
3.350985583,1.551464533,1.182698768,1.09986945,2.239538207
3.360987583,1.783472841,1.257869403,1.120059301,2.453068211
3.370989583,1.900489221,1.319993146,1.070760257,2.549660509
3.380991583,1.998184646,1.32442709,1.048546684,2.616543358
3.390993583,2.145585498,1.340426826,1.020255516,2.727856763
3.400994583,2.181955325,1.306729322,1.113346552,2.776330511
3.410996583,2.187402299,1.182571299,1.028718045,2.690996936
3.420998583,2.200215887,1.073857527,0.802492195,2.576453699
3.431000583,2.256162631,0.90585942,0.458528419,2.474085572
3.441001583,2.415728761,0.659197551,0.224811409,2.5141255
3.451003583,2.489955509,0.286505966,0.066074122,2.507255451
3.461005583,2.558167958,-0.145829558,0.001689845,2.562321685
3.471007583,2.572397742,-0.511588685,-0.048242453,2.623219483
3.481009583,2.450908973,-0.818957516,-0.23380121,2.594669384
3.491010583,2.236294816,-1.044632558,-0.463802023,2.511450577
3.501012583,2.162246992,-1.121419948,-0.717950959,2.539359828
3.511014583,2.111866651,-1.107615842,-0.970385345,2.57457595
3.521016583,2.062717296,-1.042383134,-1.148915457,2.58096338
3.531018583,2.012873583,-0.915503232,-1.058437834,2.451549893
3.541019583,1.889626556,-0.85043951,-0.654119829,2.172972303
3.551021583,1.933981195,-1.031565201,0.051521571,2.192501881
3.561023583,2.252854715,-1.361103165,0.792577803,2.748842623
3.571025583,2.703836718,-1.642012761,1.457643912,3.483053929
3.581027583,2.738468314,-1.759883857,1.682685993,3.66440064
3.591028583,2.272627367,-1.516905735,1.164479137,2.970159898
3.601030583,1.429255533,-1.031721906,-0.165853933,1.770516591
3.611032583,0.284757356,-0.553808506,-2.000507891,2.09519031
3.621034583,-0.55871527,-0.337587242,-3.873908424,3.92852318
3.631035583,-0.904549424,-0.197516021,-5.063141456,5.147098565
3.641037583,-0.803151469,0.190129234,-4.976047179,5.044030822
3.651039583,-0.870227438,0.425666775,-3.841364868,3.961637546
3.661041583,-0.9433658,0.559218349,-2.371899641,2.613153669
3.671043583,-0.840583078,0.529926138,-0.899277209,1.340186972
3.681044583,-1.253175551,0.106442714,0.313463238,1.296162881
3.691046583,-2.180674346,-0.479970451,1.051668513,2.468140778
3.701048583,-3.156574054,-1.1905393,1.833075502,3.83946733
3.711050583,-3.893386961,-1.424451315,2.459584486,4.820485393
3.721052583,-4.363527073,-0.874649906,2.63370112,5.171243812
3.731053583,-4.488944879,-0.130905125,2.484244534,5.132176261
3.741055583,-4.354728768,0.552712153,2.118095983,4.873959782
3.751057583,-4.172916906,0.816080101,1.738972606,4.593827158
3.761059583,-3.847050993,0.737774189,1.358547347,4.146053906
3.771061583,-3.490084032,0.415274518,1.453397956,3.803354453
3.781062583,-3.036214675,0.171268455,1.822832057,3.545511126
3.791064583,-2.58253389,0.007703707,1.749451255,3.119314081
3.801066583,-2.15067009,-0.061260109,1.586894567,2.673456378
3.811068583,-1.638394211,-0.080306829,2.02361828,2.604959831
3.821069583,-1.247268986,-0.190789384,2.444442975,2.750887488
3.831071583,-0.999666885,-0.343566604,2.531544415,2.743371834
3.841073583,-0.670372165,-0.32596707,2.257802337,2.377672131
3.851075583,-0.364925277,-0.266954046,1.560599492,1.62477866
3.861077583,-0.138106602,-0.210852935,0.829791822,0.867229417
3.871078583,0.103145012,-0.023088316,0.320840231,0.337802335
3.881080583,0.451784971,0.333062666,0.046741326,0.563227442
3.891082583,0.726501269,0.806819866,-0.161999449,1.097727749
3.901084583,0.836123918,1.257586398,-0.216887408,1.525669329
3.911086083,0.847375203,1.440897778,0.119536091,1.675863962
3.921087083,0.988823004,1.558105216,0.227806352,1.859397357
3.931089083,1.170477357,1.649431708,0.277984818,2.041547884
3.941091083,1.409371199,1.502128066,0.362569178,2.091452202
3.951093083,1.672186148,1.20452584,0.596262215,2.145371212
3.961095083,2.019031578,1.023809454,0.79008455,2.397688034
3.971096083,2.061103464,0.816725049,0.93160588,2.404802863
3.981098083,1.956569866,0.79461965,0.802492341,2.259110442
3.991100083,1.877961946,0.781823604,0.79159547,2.182799259
4.001102083,1.955384928,0.620262696,0.944761969,2.258501983
4.011104083,2.013896407,0.509763769,0.929717229,2.275963964
4.021105083,2.062620232,0.453873743,0.517240311,2.174382932
4.031107083,2.303867286,0.45382638,-0.076856387,2.349397744
4.041109083,2.567094902,0.601487871,-0.022476551,2.636715588
4.051111083,2.51004625,0.792747957,0.563598937,2.691918509
4.061112083,2.550816838,1.125041714,0.814000831,2.904304177
4.071114083,2.696535007,1.441380174,1.455921614,3.386530023
4.081116083,2.634187608,1.618728563,1.983175575,3.673174632
4.091118083,2.663335686,1.689672246,2.192977765,3.841549265
4.101120083,2.530622894,1.619348953,2.747209609,4.071056853
4.111121083,2.556699429,1.625923562,3.011732967,4.272104267
4.121123083,2.63110174,1.51040597,2.68446957,4.050975121
4.131125083,2.510496778,1.498672947,2.859984273,4.090003021
4.141127083,2.253458148,1.559656482,2.860128114,3.961178461
4.151129083,1.937643306,1.454056937,2.839666952,3.732619932
4.161130083,1.664763107,1.374373421,2.873630505,3.594174562
4.171132083,1.244023343,1.152296755,2.916881189,3.373955803
4.181134083,0.880487035,0.769038666,3.18135777,3.389353205
4.191136083,0.582484859,0.361714607,3.430235149,3.4980908
4.201138083,0.217019117,-0.129915776,3.575576465,3.584511467
4.211139083,-0.27110133,-0.731840435,3.689542206,3.771181253
4.221141083,-0.375881826,-1.363932633,3.509724537,3.784146628
4.231143083,0.109565273,-1.73642015,3.276697206,3.709973594
4.241145083,0.596370681,-1.852844646,3.863538972,4.326155875
4.251147083,1.118439476,-1.747549741,4.513914244,4.967922982
4.261148083,1.711584833,-1.450434587,5.129017357,5.598223127
4.271150083,2.289471588,-1.053398119,4.978459155,5.579998504
4.281152083,2.846182505,-0.659731402,3.819222339,4.808581875
4.291154083,3.505087987,-0.167373624,2.869055643,4.532674267
4.301156083,4.259853893,0.020675755,2.184717404,4.787459954
4.311157083,4.804584596,-0.219283451,1.580107119,5.062495124
4.321159083,4.477569705,-0.458221148,0.920662742,4.594150299
4.331161083,3.595919805,-0.759237564,0.654110473,3.732953446
4.341163083,2.792386367,-0.840342538,0.756401006,3.012596834
4.351165083,2.141046158,-1.003150656,-0.171511114,2.370612991
4.361166083,1.511811494,-1.489996263,-1.359784618,2.520848481
4.371168083,0.862308846,-2.168484364,-1.48596914,2.766587296
4.381170083,0.128063963,-3.290919973,-1.474025179,3.608227387
4.391172083,-0.716830194,-4.892433749,-1.534750852,5.177375174
4.401174083,-2.14114863,-6.800671992,-1.236479265,7.236196375
4.411175083,-4.213097218,-8.453599166,-0.856031348,9.4840032
4.421177083,-5.836339831,-9.160111216,-0.557455414,10.87571867
4.431179083,-6.481439745,-8.533571534,-0.333724717,10.72111358
4.441181083,-6.108487959,-7.122969934,-0.125469115,9.384352313
4.451183083,-4.614763803,-5.035026873,-0.482451425,6.846919012
4.461184083,-3.159966901,-3.093483474,-1.47910524,4.662915733
4.471186083,-1.291225722,-1.160920814,-1.251025822,2.140109018
4.481188083,-0.062640509,-0.232309293,-1.145636777,1.1706302
4.491190083,0.910565332,1.043711037,-2.487638842,2.847245856
4.501192083,2.946520725,2.545760166,-3.154905259,5.011617144
4.511193083,4.668843531,3.249425207,-4.558848926,7.289716567
4.521195083,5.053433324,3.175515232,-6.665740474,8.947244348
4.531197083,4.759468942,3.393471365,-6.648740864,8.852906167
4.541199083,3.405477745,3.244387831,-5.196668472,7.009186421
4.551201083,1.736444124,3.113916569,-3.863864661,5.25748654
4.561202083,0.595484097,2.907235622,-2.837021672,4.105522164
4.571204083,-0.302238338,2.614368471,-2.306739146,3.499616551
4.581206083,-1.292372215,2.196911187,-1.725871481,3.078193801
4.591208083,-2.666650765,1.513573991,-1.035159192,3.236276731
4.601210083,-3.817517876,1.01342246,-0.537631599,3.98616552
4.611211083,-4.887828189,0.715020334,-0.923602211,5.025451177
4.621213083,-5.430186385,0.63818909,-1.833437445,5.766775733
4.631215083,-5.234973582,0.713566132,-2.573591158,5.876861108
4.641217083,-4.61532075,0.998737178,-2.590817056,5.386185533
4.651219083,-3.898122913,1.652285734,-2.515078948,4.924533735
4.661220083,-2.866981343,2.380376934,-2.707665474,4.60621631
4.671222083,-1.802926381,3.020755221,-2.513659537,4.323654694
4.681224083,-0.762117756,3.582761523,-1.843975297,4.100883868
4.691226083,-0.024997724,4.065347434,-1.061153866,4.201633274
4.701227083,0.705372136,4.580202373,-0.148730947,4.636585438
4.711229083,1.255664272,4.814112049,0.696253111,5.02365763
4.721231083,2.146375456,4.869150136,1.360262043,5.492345899
4.731233083,3.278324778,4.565378512,1.969970807,5.955743387
4.741235083,4.328235326,3.623472177,2.073119492,6.013401374
4.751237083,6.351109986,3.086975523,2.780964123,7.589451719
4.761238083,9.05307501,2.562777902,4.312869135,10.35020956
4.771240083,10.98580958,0.629482586,6.822880887,12.94743079
4.781242083,11.66744407,-1.795654784,8.02000649,14.27144461
4.791244083,10.22772041,-3.757066437,6.359068047,12.61584557
4.801245083,6.769130942,-5.232276261,4.665002788,9.744747282
4.811247083,4.304481597,-4.93697316,2.981216349,7.196521154
4.821249083,2.41159858,-3.842613541,0.178847031,4.540206251
4.831251083,-0.244624553,-3.037217472,-4.056171106,5.073170132
4.841253083,-1.020328314,-1.931572142,-5.217970464,5.656788538
4.851254083,-1.439571922,-1.823778137,-2.20325717,3.20201127
4.861256083,-1.330097573,-3.820641459,-0.919775501,4.1487887
4.871258083,-0.583007746,-7.147493157,-2.569540207,7.617682937
4.881260083,-1.861302351,-10.11529248,-3.287318088,10.79768719
4.891262083,-3.993174081,-10.14936421,-3.333367835,11.40466458
4.901263083,-5.822184307,-6.592861948,-3.316771975,9.400246545
4.911265083,-6.106482364,-2.322576038,-3.630151452,7.474054179
4.92126675,-3.014018644,0.795851074,-3.455379345,4.653744056
4.93126875,-1.590159068,0.937603953,-0.743520248,1.990107885
4.94127075,-2.43416664,0.300418246,1.135026127,2.702536339
4.95127175,-3.112996802,0.30306645,1.023851846,3.291028861
4.96127375,-3.199892859,0.373032478,-0.587199031,3.274640475
4.97127575,-3.862950157,-0.160741128,-1.839098134,4.281413735
4.98127775,-4.692468329,-1.290982186,-1.71098944,5.158815648
4.99127975,-5.284763793,-2.454292172,-0.958639604,5.905189946
5.00128075,-5.633160782,-3.609975049,-0.1292413,6.69186996
5.01128275,-5.535469011,-4.219376543,0.399923823,6.97169238
5.02128475,-4.794946046,-3.923710329,0.525660886,6.217984376
5.03128675,-3.525804965,-2.868517699,0.331673806,4.557378847
5.04128875,-2.218788837,-1.760031207,0.117750498,2.834536811
5.05128975,-1.164494924,-0.758572735,0.441619148,1.458255292
5.06129175,-0.283500351,0.17776822,1.339656163,1.380815927
5.07129375,0.716048859,0.987904626,2.375579878,2.670591934
5.08129575,1.628216255,1.71264888,3.271694913,4.035869418
5.09129775,2.254746728,2.309260758,3.52178939,4.776983207
5.10129875,2.26995709,2.812086221,2.770882646,4.553935084
5.11130075,1.430247514,2.77335251,0.143394193,3.123724378
5.12130275,0.717360244,2.901845074,-1.983479922,3.587408975
5.13130475,0.160970631,3.326082205,-2.474998332,4.149018091
5.14130675,-0.4984755,3.630878845,-2.85969045,4.648611458
5.15130775,-1.083054905,3.709120438,-2.531124585,4.619217901
5.16130975,-1.73282806,3.304645727,-2.035775372,4.250618524
5.17131175,-2.356659604,2.449997976,-1.734227591,3.816265178
5.18131375,-2.478511339,1.834434687,-1.352683028,3.367182866
5.19131575,-1.77777663,1.543998808,-0.727544632,2.464496552
5.20131675,-0.836388504,1.152057604,0.184800081,1.435595181
5.21131875,-0.097489676,1.301278548,0.514155466,1.402564059
5.22132075,0.728360318,1.594939166,0.993171798,2.015125286
5.23132275,1.376513356,1.50996392,1.342728144,2.444933317
5.24132475,1.467259073,1.120178,1.43821069,2.340106392
5.25132575,1.509061695,0.913458461,1.250709926,2.162394247
5.26132775,1.60004057,0.860610157,1.405216899,2.296826985
5.27132975,1.574668478,1.080616908,1.766401164,2.601439369
5.28133175,1.537702526,1.508948259,2.187814528,3.070502616
5.29133275,1.721971242,1.770656767,2.534783188,3.539143421
5.30133475,2.343275035,1.684704452,2.193387655,3.624929845
5.31133675,2.796087654,1.296445824,2.193033314,3.782627798
5.32133875,3.129594124,1.170921891,2.903951241,4.427002402
5.33134075,3.406331146,1.395570747,3.595627736,5.145799103
5.34134175,3.361880028,1.582889809,4.17260291,5.58734217
5.35134375,2.626238319,1.82039026,4.829954495,5.791321855
5.36134575,1.514113835,2.07391793,4.675772189,5.33446547
5.37134775,0.346757284,1.489385814,3.863244272,4.154896752
5.38134975,-0.566983013,-0.12476204,3.350829375,3.40074886
5.39135075,-1.073425125,-1.81269474,3.919013845,4.449356497
5.40135275,-1.456725753,-2.745193489,4.978971956,5.869267326
5.41135475,-1.180953667,-2.60729334,5.626976182,6.31312055
5.42135675,0.260636129,-1.627242694,5.666013948,5.900810456
5.43135875,2.350038655,-0.646372268,4.818688665,5.400022152
5.44135975,4.206019163,0.595120254,3.919165288,5.779673163
5.45136175,5.136131079,1.714145182,2.614407063,6.012758141
5.46136375,4.969086068,1.846510942,0.97082067,5.389240372
5.47136575,4.216154142,1.736227777,-0.281181052,4.568315382
5.48136775,3.430416705,1.895828698,-1.2875028,4.125480418
5.49136875,2.910570582,2.214846352,-2.435952526,4.394408968
5.50137075,2.51667173,1.941366228,-2.812109025,4.243877543
5.51137275,1.96877973,0.968645067,-2.241666653,3.136787572
5.52137475,0.854909633,-0.761937223,-1.305650803,1.73670459
5.53137575,-1.372342098,-3.9690052,-0.092578381,4.200582801
5.54137775,-4.622860443,-8.482875005,1.733370827,9.815018158
5.55137975,-7.914251409,-13.18676821,3.193710598,15.70751472
5.56138175,-10.37869552,-16.90097923,3.399697188,20.12258335
5.57138375,-10.5700819,-17.03528744,2.824767078,20.24615911
5.58138475,-7.695259734,-12.62255283,0.704565805,14.80007687
5.59138675,-4.063374583,-7.179037716,-1.790462456,8.441288488
5.60138875,-0.881851556,-3.696353627,-2.445578066,4.51902029
5.61139075,2.031980822,-1.577061304,-2.856438229,3.843866253
5.62139275,5.009441797,0.052503904,-4.0450804,6.438939292
5.63139375,7.420365754,1.93418117,-5.771616417,9.597626831
5.64139575,8.282322525,4.010508737,-8.311212448,12.39989109
5.65139775,7.716376954,4.830000104,-10.20225578,13.67323654
5.66139975,6.221999956,5.118528036,-7.648587259,11.10916287
5.67140075,2.4066245,4.524877773,-4.008948992,6.506768197
5.68140275,-0.00410723,3.532522831,-1.572074214,3.86654261
5.69140475,-1.777176267,2.765685641,0.441561261,3.316978881
5.70140675,-3.349070241,2.630527836,0.839995506,4.340684349
5.71140875,-4.339028116,2.64622761,1.453418714,5.286029844
5.72140975,-5.575790825,2.78132285,1.550892676,6.421095562
5.73141175,-6.792774743,3.213184165,0.861983083,7.563686668
5.74141375,-7.605171098,3.497337795,-0.401523621,8.38040693
5.75141575,-8.024265018,3.59534707,-1.7519869,8.96575751
5.76141775,-7.826851907,3.75113853,-2.991282915,9.180328128
5.77141875,-7.0708882,3.740843337,-3.817313223,8.863591205
5.78142075,-5.507852027,3.844074175,-3.928445404,7.781132534
5.79142275,-4.055555102,3.922613391,-3.261078123,6.516828487
5.80142475,-2.669072097,4.071794574,-2.271576915,5.372477882
5.81142575,-1.424741191,4.165709628,-1.29972465,4.590458401
5.82142775,-0.138015193,4.30570425,-0.639974245,4.355192799
5.83142975,1.169418572,4.548732659,-0.284723734,4.705271108
5.84143175,2.242740055,4.459922808,-0.145465569,4.994192091
5.85143375,3.271862728,3.854436611,0.099281044,5.056839331
5.86143475,4.516983447,2.714529521,0.340792978,5.280904263
5.87143675,5.561463393,0.665608438,0.941895225,5.679795443
5.88143875,6.327595409,-1.693090528,2.230288848,6.919480294
5.89144075,6.904041409,-3.398214042,4.828773066,9.084640652
5.90144275,6.998834131,-4.890179647,7.831186448,11.5855521
5.91144375,5.893977005,-5.701591916,9.272575393,12.3785205
5.921446333,3.970511443,-5.400289571,9.097805625,11.30036087
5.931448333,2.706147537,-5.207652467,7.888022554,9.831773925
5.941450333,2.029444446,-4.448861631,5.7125572,7.519596021
5.951451333,2.591370495,-2.736826708,2.310662336,4.420925458
5.961453333,3.886541333,-1.458757514,-1.449116917,4.396944036
5.971455333,3.086638724,-2.850483132,-4.533214441,6.18082728
5.981457333,2.827730446,-6.008991737,-5.773817893,8.800057627
5.991459333,2.060137943,-8.688574789,-5.37597334,10.42288777
6.001460333,-1.390938144,-8.760566293,-5.076448549,10.22020355
6.011462333,-5.420760673,-7.119635852,-6.962450416,11.33797057
6.021464333,-7.8745494,-5.06189366,-7.970955952,12.29501665
6.031466333,-4.959248128,-1.605300432,-3.973451131,6.554345533
6.041467333,-2.021524246,0.943692659,1.383339249,2.625022589
6.051469333,-3.400226068,0.843031672,5.43945773,6.46992582
6.061471333,-4.601905484,0.43481182,6.406114744,7.899677304
6.071473333,-4.914396476,-0.090182776,3.65465684,6.1250259
6.081475333,-5.806903778,-0.485828776,0.785509688,5.879896815
6.091476333,-7.591161169,-2.292274597,-0.944569157,7.985766189
6.101478333,-9.467809246,-5.585255713,-2.106499492,11.19249004
6.111480333,-10.16956517,-8.411061841,-3.158969366,13.57000754
6.121482333,-7.741844501,-8.116224178,-3.956518179,11.893834
6.131483333,-4.361462129,-5.905723477,-4.415957594,8.567415197
6.141485333,-2.434673447,-4.003068155,-3.576796778,5.89454533
6.151487333,-0.866827647,-2.22643261,-1.828833055,3.008824135
6.161489333,0.373177489,-0.441363625,0.382052393,0.692840038
6.171491333,1.246352435,1.173799306,2.46064371,2.997660199
6.181492333,1.683328602,2.597363014,4.040526588,5.08976865
6.191494333,2.108993914,3.475336477,6.233603756,7.44201819
6.201496333,1.905583169,3.925920576,6.39307136,7.7405078
6.211498333,1.190731673,4.564490905,3.485468532,5.865228898
6.221499333,1.002994097,5.675057836,1.305006001,5.908918621
6.231501333,0.41410164,5.959207959,-0.042319808,5.973728369
6.241503333,-0.430221719,5.729547454,-0.766617919,5.796594499
6.251505333,-0.668072455,5.693319275,-1.223256372,5.861447034
6.261507333,-0.641036318,5.106234266,-2.102980492,5.559413898
6.271508333,-0.723924255,4.128990283,-2.147716223,4.710128667
6.281510333,-0.455396796,3.458820432,-2.013389453,4.027972457
6.291512333,0.18773701,2.518959453,-2.100346175,3.285096036
6.301514333,0.590631821,2.117875543,-1.862260564,2.881363769
6.311515333,1.293156473,1.983704163,-0.978312854,2.562114734
6.321517333,2.24641123,1.673836817,-0.409810003,2.831260733
6.331519333,3.017636316,1.169408047,0.065701654,3.236967845
6.341521333,3.505226274,0.663377725,0.222777747,3.574396615
6.351523333,3.573422058,0.500539201,0.170037908,3.612311945
6.361524333,2.86440009,0.165232374,1.090009729,3.069236195
6.371526333,1.942275763,-0.033484665,2.120209605,2.875559968
6.381528333,1.345538754,-0.041972483,2.512278425,2.850224397
6.391530333,1.404928777,0.234511355,2.451316962,2.835097052
6.401531333,1.887895634,0.789626128,2.179268822,2.989460143
6.411533333,1.910490299,1.365195047,2.576859167,3.486249254
6.421535333,1.344654655,1.627940851,3.377026071,3.982787044
6.431537333,0.754292939,1.898035437,4.612338086,5.044319476
6.441539333,0.429941966,2.351532619,5.737954581,6.216001812
6.451540333,0.549503932,2.598890306,6.124442672,6.675700969
6.461542333,0.346998335,2.137168431,5.800937864,6.191831462
6.471544333,-0.562929723,1.365027232,5.786235625,5.97165906
6.481546333,-1.243219935,0.220274554,4.975871762,5.133557877
6.491547333,-1.474598937,-1.18061716,4.053316203,4.471875573
6.501549333,-1.478754845,-2.252022364,3.243227744,4.216259814
6.511551333,-1.575504629,-3.120518076,3.541669046,4.976270444
6.521553333,-1.510407285,-3.242550636,4.597461015,5.825127688
6.531554333,-1.173319688,-1.977316664,5.008930165,5.51142828
6.541556333,-0.352357747,-0.436817415,4.041963249,4.08073919
6.551558333,1.533538139,0.79290817,3.111517457,3.558368092
6.561560333,3.9948037,2.132105911,1.844068414,4.889265848
6.571562333,5.117393092,2.870103464,0.61528847,5.899473354
6.581563333,4.908136446,2.605555547,0.330906798,5.566706602
6.591565333,4.219386483,2.369807507,0.383238647,4.854490887
6.601567333,3.263088396,2.137242106,-1.037727581,4.036388018
6.611569333,2.463652102,1.592901996,-2.517711073,3.865978207
6.621570333,1.731183676,0.430470262,-2.877588485,3.385678227
6.631572333,1.099401673,-1.200269067,-2.331813761,2.843709776
6.641574333,-0.537321696,-4.229990408,-0.702688264,4.32149329
6.651576333,-3.61463528,-8.912043677,1.438809591,9.724211215
6.661577333,-7.489748231,-14.46989524,2.53381752,16.48922158
6.671579333,-10.72091785,-18.24615458,2.01955695,21.25885337
6.681581333,-11.38806527,-17.95656187,0.839708115,21.27983211
6.691583333,-9.017832087,-13.46744392,-0.451584558,16.21410712
6.701585333,-5.449533067,-7.933981669,-1.957172422,9.822219691
6.711586333,-2.735328652,-4.727134717,-3.495940896,6.484553046
6.721588333,0.207131036,-2.201714675,-5.05401746,5.516660517
6.731590333,4.288809597,0.046981793,-6.031011182,7.400620983
6.741592333,7.034996236,1.602016636,-7.516729038,10.41915758
6.751593333,9.328865368,3.829667805,-7.630023519,12.6456057
6.761595333,10.28702872,5.477433057,-8.806359932,14.60743673
6.771597333,10.0304681,5.810398074,-8.053594651,14.11493545
6.781599333,7.466388604,4.839859094,-4.314722703,9.88878288
6.791600333,2.541682903,3.768346301,-1.661671977,4.83960118
6.801602333,-0.163821733,3.585447149,-0.210348321,3.595346331
6.811604333,-2.480143881,3.442939394,1.020319836,4.364172076
6.821606333,-4.551697489,3.467396543,1.873099109,6.020738251
6.831608333,-6.188439862,3.444227536,2.325516895,7.454362486
6.841609333,-7.659073656,3.543168272,2.209604615,8.723405483
6.851611333,-8.885582687,3.386813141,1.542037944,9.633377599
6.861613333,-9.541746118,3.396230081,0.270909395,10.13176636
6.871615333,-9.382248108,3.483915512,-1.46492428,10.11485294
6.881616333,-8.155068986,3.481385422,-3.196458497,9.425632156
6.891618333,-6.369705886,3.191210913,-4.583436176,8.471414719
6.901620333,-4.88812172,2.739310606,-4.901378819,7.444532952
6.911622333,-3.803345979,2.38482725,-4.236073559,6.172289757
6.921623458,-3.051156357,2.45117736,-3.383430526,5.173531453
6.931625458,-2.668080994,2.654248821,-2.86079879,4.727352611
6.941627458,-2.130253367,2.930708685,-2.453320657,4.375593108
6.951629458,-1.334859253,3.096481342,-1.945850166,3.893119417
6.961630458,-0.163409651,3.390636635,-0.871105324,3.504560456
6.971632458,1.306784286,3.377728906,0.635480075,3.677033133
6.981634458,2.892114723,2.517388891,1.663721426,4.179658285
6.991636458,4.624209688,0.861971388,2.193094125,5.189987645
7.001638458,6.875174291,-0.497762944,3.770001355,7.8567614
7.011639458,9.516029479,-1.617099529,6.417156626,11.59093297
7.021641458,11.51595089,-3.176792264,9.28217769,15.12838249
7.031643458,12.01191173,-4.462555225,11.57138484,17.2654965
7.041645458,9.737551829,-5.119460083,10.0848589,14.92424759
7.051646458,5.965812389,-5.301045949,7.140030355,10.70850312
7.061648458,2.763934692,-5.203295707,5.152359442,7.826904178
7.071650458,1.684431533,-4.206002206,1.083592848,4.658533848
7.081652458,1.518165663,-4.373852379,-4.44323047,6.416985945
7.091653458,1.785516297,-6.874763231,-6.982965957,9.960534699
7.101655458,3.28643282,-10.75909666,-7.661771561,13.6110817
7.111657458,1.555151203,-12.62439353,-8.048907523,15.052532
7.121659458,-3.28303091,-10.14153596,-8.572331557,13.67895873
7.131660458,-7.595864085,-6.467342693,-7.97864621,12.77428934
7.141662458,-6.070696819,-2.449819052,-3.206554299,7.289510528
7.151664458,-2.150486195,1.071772994,3.009763041,3.851228608
7.161666458,-3.77356611,2.178569641,5.329930025,6.884338817
7.171667458,-5.0756697,2.762720518,5.011735075,7.649348732
7.181669458,-4.326895729,3.063905334,5.372945067,7.54838269
7.191671458,-4.561177872,2.763066673,1.877865466,5.653782781
7.201673458,-5.064998531,1.937234001,-0.909856284,5.498629298
7.211675458,-6.766606114,-1.062681744,-2.396112668,7.256556119
7.221676458,-7.890029318,-5.043825179,-2.594125118,9.717109663
7.231678458,-6.815373647,-7.752441995,-2.564208424,10.63601616
7.241680458,-3.941520655,-7.751067899,-2.900977932,9.166804875
7.251682458,-1.387178385,-6.294652196,-3.162451675,7.179694334
7.261683458,-0.144278292,-4.426438728,-3.448199257,5.612865058
7.271685458,0.68809281,-2.316821208,-2.808267404,3.705063837
7.281687458,1.396985043,-0.093995746,-1.093383719,1.776482582
7.291689458,1.964199898,1.401498654,1.365226622,2.772385876
7.301690458,2.009197731,2.53519951,3.163683976,4.524710861
7.311692458,1.356600663,3.383674355,4.446740845,5.750054056
7.321694458,0.740929858,3.994830598,5.389302653,6.749239338
7.331696458,-0.04132326,4.735303277,4.590021603,6.594930102
7.341697458,-0.861248526,5.82802626,1.386212279,6.052208159
7.351699458,-1.196361738,7.108065382,-1.394282606,7.341655049
7.361701458,-1.935864583,6.833325768,-2.432092633,7.507129099
7.371703458,-2.397678406,5.836712299,-1.604279509,6.510743809
7.381704458,-2.329790478,4.622116969,-0.940053498,5.260759406
7.391706458,-2.482702915,3.283723805,-0.85735165,4.204962264
7.401708458,-2.040645518,2.251575637,-1.12077003,3.238819606
7.411710458,-0.73069438,1.922318923,-1.61416715,2.614337375
7.421711458,0.861961521,1.943695759,-1.505087927,2.605037531
7.431713458,1.76050527,2.013003391,-0.985795243,2.850149772
7.441715458,2.242965904,1.952254913,-0.262787028,2.985172075
7.451717458,2.496141863,1.771314579,0.328398927,3.078331593
7.461718458,2.681811718,1.56928977,0.718670166,3.189243058
7.471720458,2.398599781,1.217853398,1.351248999,3.010369025
7.481722458,2.089237342,0.855569857,1.842952327,2.914341389
7.491724458,1.718664788,0.349937146,2.336636837,2.92166671
7.501725458,1.376685264,-0.047198725,2.550847244,2.899019092
7.511727458,1.131668948,-0.340431912,2.045843254,2.362634783
7.521729458,1.084440402,-0.4111955,1.975700494,2.29095726
7.531731458,1.375437176,-0.098857121,2.515031294,2.868271703
7.541732458,1.680179438,0.231456184,3.525205041,3.911987409
7.551734458,2.01857301,0.829012388,4.58754823,5.080108001
7.561736458,2.509795989,1.495715425,5.350490005,6.096227016
7.571738458,2.656845277,2.084454612,5.691059911,6.617547942
7.581740458,2.164161371,2.193815086,5.471932581,6.280005195
7.591741458,1.692969199,1.503916145,3.898901762,4.508807318
7.601743458,1.427592293,0.414938303,3.000757159,3.348841154
7.611745458,0.868258607,-1.037299565,3.418241925,3.676172092
7.621747458,-0.581528547,-2.21254021,4.601209665,5.138544542
7.631748458,-1.529317327,-2.328140248,5.962397615,6.580975142
7.641750458,-1.332151408,-1.422318835,6.538545408,6.82277028
7.651752458,-0.352899199,0.107167184,5.876664569,5.888226313
7.661754458,1.281891519,1.659973653,4.172985318,4.670392367
7.671755458,3.274529058,2.67656355,3.032396443,5.204033164
7.681757458,4.498230842,3.607608097,2.392701695,6.242911043
7.691759458,4.001680318,3.962435269,1.032222428,5.725366518
7.701761458,3.091053079,3.463349685,-0.128981537,4.643924678
7.711762458,2.612104429,3.236561333,-1.312983796,4.361461367
7.721764458,2.384724923,3.017510601,-1.751136715,4.225962965
7.731766458,2.161682298,1.929524447,-1.502495272,3.263958791
7.741768458,1.965806713,-0.099123754,-1.324957432,2.372705997
7.751769458,0.461669068,-3.94881301,-1.041766253,4.109931806
7.761771458,-2.619148862,-9.398852447,0.27041092,9.760711559
7.771773458,-6.210452875,-15.46960891,2.254182326,16.82141084
7.781775458,-9.133334477,-21.16474082,3.012905334,23.24740096
7.791776458,-9.883881909,-23.41329929,2.069825171,25.49819369
7.801778458,-7.28224575,-17.6780508,-0.075541348,19.1193695
7.811780458,-3.386086624,-8.879432586,-2.241878907,9.764011814
7.821782458,-0.226139896,-3.927266021,-4.272698179,5.807797119
7.831783458,2.832948794,-1.170963407,-6.458817453,7.149341023
7.841785458,5.335451551,0.903173209,-8.058903338,9.70714624
7.851787458,6.570654223,2.406479489,-8.65762957,11.13189967
7.861789458,6.372720711,4.047730358,-8.464282029,11.34194695
7.871790458,5.708958238,4.333438763,-7.206537756,10.16391077
7.881792458,4.798854617,3.531318305,-4.151335418,7.261735354
7.891794458,4.190579005,3.369494272,0.851442015,5.444207707
7.901796458,1.049142443,2.904328387,2.771981631,4.149663288
7.911797458,-2.10131272,2.652891097,3.102588466,4.591230936
7.921799708,-3.982477185,2.768764785,2.79012671,5.595622398
7.931801708,-5.480475948,3.062949899,2.167056181,6.641792769
7.941803708,-6.182054118,3.527640991,1.08610452,7.20011577
7.951804708,-6.635296946,3.758227109,-0.624401355,7.65122955
7.961806708,-6.683518349,3.938099157,-2.416711532,8.125179205
7.971808708,-6.332014734,4.038744357,-3.947800857,8.48475092
7.981809708,-5.587484672,4.08610271,-5.709873912,8.973231325
7.991811708,-4.993088889,3.952447055,-6.588466596,9.163005318
8.001813708,-4.759169272,3.780808471,-6.567327157,8.948407168
8.011815708,-3.955948952,3.759835678,-5.856683464,8.005413021
8.021816708,-3.31242077,3.627305612,-4.558299288,6.701311048
8.031818708,-2.667339567,3.669512569,-3.115999932,5.503587778
8.041820708,-1.754108855,3.949100109,-2.114580929,4.810794326
8.051822708,-0.523023938,4.388614844,-1.196492058,4.578764848
8.061823708,1.232700064,4.786580434,-0.066091371,4.943204403
8.071825708,3.141678565,4.832468213,0.935466211,5.839348446
8.081827708,4.714159453,4.305653379,1.249409067,6.505610915
8.091829708,6.274153612,3.403674172,1.708336558,7.339510556
8.101830708,7.968508308,2.611658286,4.073333853,9.322549669
8.111832708,9.173319492,1.472800772,7.169571658,11.7354885
8.121834708,8.787766371,-1.698210935,9.948331089,13.38200469
8.131836708,8.419176607,-4.829464499,13.05680098,16.26918295
8.141837708,6.208435001,-6.569958989,13.18356277,15.98484762
8.151839708,2.688211496,-6.700538424,11.38190815,13.47855814
8.161841708,1.70684508,-4.751420542,9.141907665,10.44336119
8.171843708,1.446867347,-1.998674204,3.284214971,4.107820793
8.181844708,0.426448109,-1.289512196,-4.374719228,4.580706061
8.191846708,1.27467971,-3.402390708,-9.885982229,10.53250756
8.201848708,2.745486727,-8.189493299,-12.66340031,15.32864003
8.211850708,1.443159335,-13.5504428,-13.93205782,19.48844386
8.221851708,-3.171667764,-13.3881966,-14.03502028,19.65413643
8.231853708,-6.792674171,-8.338055845,-9.627346432,14.43431318
8.241855708,-2.7415267,-2.421313291,-1.008599969,3.794206188
8.251857708,0.057093237,0.438728285,4.697353385,4.718142746
8.261858708,-2.524310825,1.385864954,7.337404874,7.882276137
8.271860708,-4.105384781,1.683496417,8.261367273,9.377554778
8.281862708,-4.476964518,1.368886394,6.239847997,7.800818181
8.291864708,-5.362069246,-0.314331111,2.072659901,5.757300558
8.301865708,-6.441122024,-3.541206531,-0.60122767,7.374935344
8.311867708,-8.389331249,-8.126164445,-2.408734176,11.92549486
8.321869708,-9.840227766,-11.70663094,-3.677117165,15.72884233
8.331871708,-8.771537424,-11.75047453,-4.335399627,15.29082111
8.341872708,-5.249481694,-8.101374589,-4.956736749,10.85166197
8.351874708,-2.851824483,-5.017861202,-4.811602424,7.514209993
8.361876708,-1.245408841,-2.730093055,-3.499436946,4.609827568
8.371877708,0.136456033,-0.896787465,-1.217409302,1.518200716
8.381879708,1.019107781,0.582067514,1.265648247,1.726050041
8.391881708,1.349706942,1.628399273,3.777592503,4.329387733
8.401883708,1.290643047,2.39770925,6.647897696,7.183962201
8.411884708,0.891921046,3.116465371,6.912767794,7.635066348
8.421886708,-0.288832098,4.058437779,4.480560556,6.052252811
8.431888708,-2.001445931,4.93611128,0.657532264,5.366873304
8.441890708,-3.375040941,5.884736066,-0.927879595,6.847041731
8.451891708,-4.604609528,5.997394955,-0.812634337,7.604705761
8.461893708,-5.324696183,5.503126307,-1.05607322,7.72994691
8.471895708,-4.757934633,4.796904863,-1.14348354,6.852429703
8.481897708,-3.231347078,3.907707084,-0.732132211,5.123260307
8.491898708,-1.533146376,3.610356873,-1.241663845,4.114236705
8.501900708,0.286161016,3.789907324,-1.5671684,4.111119366
8.511902708,1.57421298,3.944913502,-1.43018641,4.481732055
8.521904708,2.325646703,4.081897978,-1.26257992,4.864630689
8.531905708,2.722539622,3.744717118,-0.741008723,4.68873354
8.541907708,2.373600449,3.21200829,-0.391287924,4.012989233
8.551909708,2.127616712,2.617912468,0.041811685,3.373717057
8.561911708,1.98707786,2.045758324,0.834842501,2.971627087
8.571912708,1.611322041,1.634743502,1.48477163,2.733732217
8.581914708,1.384312811,1.108551981,2.133979213,2.774721019
8.591916708,1.607736675,0.820401193,2.501963936,3.085076802
8.601918708,1.722355404,0.301085413,2.72897916,3.241062761
8.611919708,2.005294422,0.016440616,2.89688722,3.523270012
8.621921708,2.984738127,0.218726796,3.481716374,4.591171093
8.631923708,4.331263891,0.703003721,4.353576574,6.18123694
8.641924708,5.355557202,1.546596141,5.373189481,7.742423249
8.651926708,5.686866288,1.923318213,5.545606914,8.172720304
8.661928708,5.409397779,1.146291665,5.225354912,7.607884257
8.671930708,4.795555033,-0.326054778,4.795142512,6.789480946
8.681931708,3.495828629,-2.211021103,4.715446132,6.272548473
8.691933708,1.810583018,-3.594882801,4.689671606,6.180162861
8.701935708,-0.383158394,-3.750128131,5.044964216,6.297772249
8.711937708,-1.621272687,-2.673230052,4.812741462,5.739090905
8.721938708,-0.771659973,-1.696722234,4.059979105,4.467410412
8.731940708,0.625288086,-0.5536097,3.418702101,3.519231868
8.741942708,2.19157955,0.863119197,2.93528647,3.763496025
8.751944708,3.124984764,1.454035887,2.649978599,4.347658762
8.761945708,3.41009763,1.418142169,2.430376475,4.421156282
8.771947708,3.712493697,1.265816939,1.307744399,4.134621795
8.781949708,3.267455682,1.09426314,-0.254297601,3.455191126
8.791951708,2.288793895,1.037990706,-0.820800558,2.643807058
8.801952708,1.673612576,0.416345143,-0.454919225,1.783612579
8.811954708,0.844929532,-1.142093364,0.213622761,1.436634209
8.821956708,-0.778923311,-3.875169083,0.03627788,3.952843664
8.831957708,-4.014789191,-7.93978503,-0.262370998,8.9009863
8.841959708,-7.988530928,-13.40953309,-0.456869856,15.61540695
8.851961708,-11.61332107,-17.93341508,-0.29604219,21.36736399
8.861963708,-13.21169606,-19.04893753,0.357885851,23.18488767
8.871964708,-11.6156389,-15.48192665,0.15012887,19.35550719
8.881966708,-7.258778535,-8.954024346,-1.871734661,11.6776628
8.891968708,-3.533256657,-4.665862913,-3.600468646,6.871503023
8.901970708,0.361575115,-1.780286547,-4.368996851,4.731626595
8.911971708,4.821005332,0.262962736,-4.879087479,6.8641632
8.92197375,8.37006058,1.71042343,-5.892300024,10.3779893
8.93197575,11.13707003,2.998808282,-7.054935826,13.52032912
8.94197675,13.23553399,4.855600383,-7.816284235,16.11987947
8.95197875,12.5991207,5.864698243,-9.090147527,16.60612266
8.96198075,7.604417392,4.053502144,-8.295360062,11.96123079
8.97198275,2.825900853,3.413564152,-5.717398694,7.233725436
8.98198375,1.053419462,4.214218129,-2.963556588,5.258516393
8.99198575,-0.737172072,4.51248226,-0.268944438,4.580201952
9.00198775,-2.783951758,4.651174123,2.134846501,5.825922905
9.01198975,-4.859206946,4.492036301,3.473258377,7.473540395
9.02199075,-7.043869386,4.406279283,3.009753977,8.836855325
9.03199275,-8.74919989,4.652183937,1.545667019,10.02897805
9.04199475,-9.605069125,4.861699614,0.409011858,10.77315027
9.05199675,-9.72745895,4.844059734,-0.698516276,10.88927442
9.06199775,-8.979269115,4.748018047,-2.052446077,10.36260026
9.07199975,-7.754757493,4.565287296,-2.800112293,9.424369513
9.08200175,-6.670760894,4.090092266,-3.082141045,8.409964273
9.09200275,-5.646107687,3.510837847,-3.037420371,7.309612637
9.10200475,-4.633015887,3.024806757,-2.640628316,6.130840891
9.11200675,-3.493913958,2.812110195,-2.149204924,4.973377152
9.12200875,-2.241253255,2.759862399,-1.474087744,3.848764904
9.13200975,-0.858197888,2.656618697,-1.147655528,3.018483017
9.14201175,1.024671918,2.573716289,-1.142443905,2.996522343
9.15201375,3.385894543,2.489148594,-0.654414236,4.253046034
9.16201575,6.019151275,2.029719411,-0.013590976,6.352175034
9.17201675,8.744755422,1.215385289,0.864978319,8.871082024
9.18201875,11.49749123,0.629384937,2.911973329,11.87720585
9.19202075,13.19001692,-0.30398037,4.816380477,14.04515829
9.20202175,12.77578496,-3.621109902,6.194360168,14.65275456
9.21202375,11.57159066,-6.545417055,8.201668956,15.62086965
9.22202575,9.247348166,-7.649200047,8.944758849,14.96771259
9.23202775,5.362479136,-6.705358869,8.285617431,11.9318681
9.24202875,1.348194852,-5.01310917,6.989842283,8.70670937
9.25203075,-0.812283212,-2.576617677,0.550984008,2.757235218
9.26203275,-1.750168416,-0.952481024,-4.828144197,5.223149048
9.27203475,-2.094813686,-2.020869066,-4.218815502,5.12548148
9.28203575,-0.456666665,-5.767794092,-3.773480741,6.907615365
9.29203775,-0.841015845,-9.710233052,-5.001387257,10.95489882
9.30203975,-4.643217232,-10.34686211,-7.487820404,13.58986667
9.31204075,-8.351751779,-8.453655299,-9.946012083,15.49642546
9.32204275,-7.208488972,-5.193175346,-6.474464017,10.99318278
9.33204475,-3.51079984,-2.603654033,-1.043956035,4.493837341
9.34204675,-3.322629131,-1.932011268,2.648775827,4.667820183
9.35204775,-4.935526559,-1.548823931,3.972640999,6.522281387
9.36204975,-4.836672946,-0.69453169,3.761047806,6.16613818
9.37205175,-4.658131725,-0.813051243,3.158987785,5.686690365
9.38205375,-5.504990399,-2.346356664,1.742416178,6.232681849
9.39205475,-6.398811572,-3.664246566,0.31584934,7.380464297
9.40205675,-7.085770533,-4.315257431,-0.976348774,8.353612851
9.41205875,-7.272102585,-5.133481706,-0.973649991,8.954557763
9.42205975,-6.349212565,-5.072227444,-1.097104887,8.200221373
9.43206175,-4.195849686,-4.01580573,-1.958288363,6.129171523
9.44206375,-2.075433235,-2.547220216,-2.369774178,4.051121276
9.45206575,-0.438451127,-1.142936532,-1.95063465,2.302937004
9.46206675,0.778583004,-0.13738384,-1.048167346,1.312905404
9.47206875,1.830215483,0.698100246,0.551910353,2.035101399
9.48207075,2.591555559,1.440289083,2.625129979,3.960037912
9.49207275,2.800577731,1.912136582,4.289955359,5.468383575
9.50207375,2.249305894,2.524143595,5.931421405,6.827330208
9.51207575,0.957864556,3.411039909,4.651549514,5.847188269
9.52207775,-0.081657107,5.044249102,0.645719573,5.086066324
9.53207875,-1.184629592,6.445985738,-1.930285755,6.832282379
9.54208075,-2.146078856,6.893436314,-2.338296277,7.588988612
9.55208275,-2.616820501,6.589682817,-1.765990836,7.306872983
9.56208475,-2.757257172,5.471591104,-1.707867758,6.360628003
9.57208575,-2.520806004,3.896317293,-3.628706605,5.890947545
9.58208775,-1.332934935,3.365629263,-3.444309981,4.996743652
9.59208975,0.675550898,3.35212161,-1.680903177,3.81031807
9.60209175,2.065005896,3.092442085,-1.057378465,3.865940586
9.61209275,3.389305809,2.773205745,-0.270673021,4.387633514
9.62209475,4.423142945,2.001994838,0.674995558,4.901815566
9.63209675,4.35210483,1.381497669,1.329402924,4.755698097
9.64209775,3.733634305,0.99082648,1.416116547,4.114261576
9.65209975,2.960342666,0.719510411,1.896847721,3.588781856
9.66210175,2.304652275,0.48996919,2.15014808,3.189769378
9.67210375,2.056030274,0.136676327,2.032426087,2.894252357
9.68210475,1.80039556,-0.106288347,2.033630029,2.718156081
9.69210675,1.652962403,-0.324220507,2.795521644,3.263793024
9.70210875,1.727038878,-0.465595071,3.959388869,4.344675163
9.71210975,2.003141039,-0.43776174,5.079941676,5.478139902
9.72211175,2.531431564,-0.140782827,5.598310792,6.145652877
9.73211375,2.680432652,0.211228911,5.590697717,6.203647139
9.74211575,2.299414339,-0.336596138,5.298330503,5.785577705
9.75211675,2.010878805,-0.945767836,4.600325566,5.108924122
9.76211875,1.345257649,-1.205866022,3.972472599,4.363985513
9.77212075,0.42993685,-0.647226546,3.207740407,3.300506994
9.78212275,-0.240086675,0.668443753,3.232698078,3.309802943
9.79212375,-1.030433472,1.206498106,4.463815885,4.73741312
9.80212575,-0.672012016,0.905476427,3.814725246,3.97789095
9.81212775,0.515049798,1.198218448,2.68250666,2.982758073
9.82212875,1.593858308,1.999324999,2.962302945,3.913173073
9.83213075,2.499773277,3.27934424,3.053104942,5.130732391
9.84213275,2.377242095,3.442451736,2.681496261,4.96912227
9.85213475,1.784687454,2.982286974,1.974280059,3.997114791
9.86213575,1.862900834,2.663560511,0.044131129,3.25067711
9.87213775,1.677404057,2.010700173,-1.131800072,2.852642802
9.88213975,1.415087291,1.18443773,-0.893060011,2.050102671
9.89214075,1.008307316,-0.680566201,0.128638598,1.223275065
9.90214275,-0.046587398,-3.983240831,1.118871586,4.137662569
9.91214475,-2.352296558,-8.559541358,1.439191268,8.992792606
9.922146458,-6.527022884,-14.43477336,1.672037044,15.92985931
9.932147458,-10.58810536,-19.91479322,2.304682388,22.67197665
9.942149458,-12.45476815,-22.4949777,2.388830838,25.82347351
9.952151458,-10.2947564,-18.61068404,0.98029199,21.29085583
9.962152458,-5.455117158,-10.27211832,-2.491421114,11.89461631
9.972154458,-2.525337011,-5.086695794,-6.253493645,8.4473655
9.982156458,1.237495219,-1.693467674,-8.445499603,8.702050949
9.992158458,6.095235829,0.53506701,-7.762445996,9.884015599
10.00215946,9.322586628,1.704004941,-6.789337749,11.65801704
10.01216146,9.656286056,3.344431937,-7.150052483,12.47206221
10.02216346,10.01010108,5.863324732,-7.32184134,13.71823826
10.03216446,10.45421465,7.015651892,-5.947424065,13.92414552
10.04216646,8.168736852,6.139446627,-2.109432748,10.43411583
10.05216846,3.611033396,5.39417046,0.873284581,6.549752903
10.06217046,0.500437314,5.056330034,1.83353597,5.401737227
10.07217146,-2.509415628,4.443946461,2.272717122,5.586686859
10.08217346,-4.84135949,4.491258622,2.362647591,7.01372008
10.09217546,-6.347442028,4.573742954,2.203912936,8.128122608
10.10217746,-7.734231427,4.556275567,1.205894088,9.057160888
10.11217846,-8.459663898,4.571668362,-0.041050085,9.616015286
10.12218046,-8.592855869,4.359161834,-1.021089329,9.689276923
10.13218246,-8.108709921,3.92111358,-1.902056567,9.205657363
10.14218346,-7.087895996,3.304907098,-2.494473653,8.208719716
10.15218546,-6.068557323,2.731149647,-2.710195857,7.185522108
10.16218746,-5.21273896,2.381338216,-2.423350753,6.222222114
10.17218946,-4.561188982,2.302822389,-2.126616838,5.534431774
10.18219046,-4.015632067,2.524511384,-1.884202679,5.103790588
10.19219246,-3.418024408,2.838689883,-1.55913608,4.708710696
10.20219446,-2.482426634,2.966548609,-0.947997964,3.982656498
10.21219546,-1.277093294,2.971830398,-0.244567104,3.24384899
10.22219746,0.390696478,3.019689859,0.606560916,3.104687863
10.23219946,2.090419649,2.927051836,1.600158976,3.936749358
10.24220146,3.262699556,2.438368449,2.495067438,4.776631722
10.25220246,4.018353946,1.585931531,2.958136804,5.235734964
10.26220446,5.023665733,0.696585817,4.227643336,6.60268259
10.27220646,6.380315659,0.172860067,6.89079922,9.392625959
10.28220746,7.659319239,-0.649009362,10.23669238,12.80141614
10.29220946,7.302873557,-3.052310305,12.36751599,14.6834605
10.30221146,5.46428033,-4.476255836,11.59064089,13.57343663
10.31221346,3.134864219,-4.217547534,8.759236636,10.21466139
10.32221446,1.662195303,-3.30843063,5.937205471,6.997071906
10.33221646,1.655435483,-1.698841265,2.112536158,3.176371719
10.34221846,1.712626807,-1.614073595,-2.042029554,3.115799873
10.35221946,1.95013676,-4.25040947,-4.937850827,6.800837069
10.36222146,3.97299651,-8.9170869,-7.379354553,12.23740224
10.37222346,3.605782596,-12.82684987,-11.31161877,17.47805667
10.38222546,-1.551642435,-12.04937367,-17.12025216,20.9928091
10.39222646,-6.598495156,-8.987534155,-16.48173036,19.89882771
10.40222846,-6.199904498,-5.652696329,-5.673602464,10.12825535
10.41223046,-3.256776327,-2.275106002,3.122789134,5.053168446
10.42223146,-3.457017443,-0.311548421,6.400164617,7.280806215
10.43223346,-4.100182513,1.262967006,8.593506664,9.604943471
10.44223546,-4.20836185,1.752188337,8.618003574,9.749382495
10.45223746,-4.811768485,0.454595874,5.026498709,6.973196013
10.46223846,-5.751655777,-1.359394024,1.234564156,6.037685396
10.47224046,-6.905976838,-3.776504336,-1.179448886,7.958994959
10.48224246,-8.457871141,-6.483058255,-2.320938233,10.90652937
10.49224346,-10.0253588,-8.61969108,-2.409147866,13.43915499
10.50224546,-8.596129725,-8.64854709,-2.478232427,12.44316877
10.51224746,-4.830000688,-5.849469754,-3.521097079,8.363212762
10.52224946,-2.473276619,-3.518646803,-3.812598029,5.747510443
10.53225046,-0.93704189,-2.038843991,-2.753236919,3.551794737
10.54225246,0.491662324,-0.702889701,-0.719502225,1.119584398
10.55225446,1.679736072,0.472071447,2.326811468,2.908335664
10.56225546,2.121307274,1.41764691,6.948229988,7.401862419
10.57225746,1.504096239,2.625415031,7.893169273,8.453237886
10.58225946,0.684465636,4.216390954,2.56757145,4.983860856
10.59226046,-0.605736166,5.538920622,-0.180769157,5.574875376
10.60226246,-1.74486733,6.602909803,-0.00257219,6.829567079
10.61226446,-2.776434578,6.85431084,-0.018749974,7.395303755
10.62226646,-3.459661261,5.71291388,-0.448575873,6.693867444
10.63226746,-2.598515207,4.418591765,-1.021614701,5.226847144
10.64226946,-1.14767285,3.565525686,-2.356298831,4.425185936
10.65227146,0.0882578,3.48406637,-3.51697333,4.951323996
10.66227246,1.027368435,3.616898153,-2.753010632,4.660097176
10.67227446,1.06432028,3.53532774,-1.438314478,3.962331186
10.68227646,0.909471976,3.520053059,-0.204372466,3.641384478
10.69227846,1.333891978,3.472385387,0.311667704,3.732809243
10.70227946,1.697229187,3.391683286,0.851475783,3.887044306
10.71228146,2.465760608,3.490393642,0.887507495,4.364687011
10.72228346,2.989569097,3.461980267,1.0588429,4.695101601
10.73228446,2.795793247,2.914399631,1.890725102,4.459263
10.74228646,2.486536642,2.128178337,2.493467347,4.114533621
10.75228846,1.872000124,1.106310158,2.792325556,3.539122581
10.76229046,1.206480637,0.068519427,2.899281655,3.14103877
10.77229146,1.254913343,-0.827062342,3.24761374,3.578524084
10.78229346,1.770148937,-1.497200033,4.29157036,4.877767046
10.79229546,2.738463636,-1.722994943,5.514644153,6.393683976
10.80229646,3.962817384,-1.335498208,6.516442932,7.742835758
10.81229846,4.560265414,-0.678289295,6.348224385,7.845766366
10.82230046,4.261927608,-0.33169968,6.083708628,7.435426167
10.83230246,3.362670572,-0.470582162,5.179465379,6.193211006
10.84230346,2.710335313,-1.324193786,4.739039063,5.61764167
10.85230546,2.475994112,-2.077978236,4.76104389,5.754657185
10.86230746,1.505964132,-1.139459778,5.424906934,5.744206803
10.87230846,0.839624353,0.276943429,6.185363642,6.248230958
10.88231046,0.80896382,0.902924702,5.603979083,5.733609425
10.89231246,0.869859429,1.335605797,4.272665727,4.560281865
10.90231346,1.588868587,2.100039196,2.920297717,3.932277555
10.91231546,2.604633442,2.78997556,1.549926715,4.119508686
10.92231796,2.751265823,2.493908227,0.979343718,3.840332797
10.93231996,2.057091982,1.890745128,0.805476687,2.907806262
10.94232096,1.282723286,1.91935497,-0.068774366,2.309552433
10.95232296,0.885071106,1.784307677,-0.791127401,2.143125595
10.96232496,0.788275567,0.845523756,-0.579168903,1.292952207
10.97232596,0.341784081,-1.244927176,0.368150784,1.342458577
10.98232796,-2.261782683,-5.797676287,1.832900817,6.487544731
10.99232996,-6.849389824,-12.37230252,3.666138141,14.60919503
11.00233196,-11.47694178,-18.5475996,3.312819258,22.06146901
11.01233296,-14.39203606,-21.79474556,1.907983597,26.18744045
11.02233496,-14.13293658,-20.02524479,0.30691728,24.51213013
11.03233696,-9.729333567,-12.48146887,-1.909844766,15.94034202
11.04233796,-4.62344838,-6.126669876,-3.675118294,8.509926743
11.05233996,-0.789650321,-3.12040464,-5.966400619,6.779263167
11.06234196,4.176994754,-1.518135404,-7.49070542,8.709918941
11.07234296,9.605549181,0.378588502,-7.051178405,11.92178767
11.08234496,11.5444701,2.490071284,-8.234278293,14.39717278
11.09234696,12.04258271,5.007571857,-9.513994648,16.14359528
11.10234896,12.33121531,6.534642391,-8.889932431,16.54664077
11.11234996,9.508754373,5.080596564,-6.14227434,12.40791704
11.12235196,4.696107636,3.538233806,-1.989787314,6.207397116
11.13235396,1.643812826,4.013400185,0.093511889,4.338000245
11.14235496,-0.513567237,4.36588087,1.91637172,4.795534136
11.15235696,-2.996934249,4.438882772,3.199619502,6.238818808
11.16235896,-5.05107865,4.886678334,2.940239939,7.618269591
11.17235996,-6.879141042,5.252465528,2.149905713,8.91813154
11.18236196,-8.258546576,5.297140009,1.047705562,9.867166299
11.19236396,-9.280999476,5.078140149,-0.347279294,10.58513399
11.20236596,-9.709593367,4.673646727,-1.857326244,10.93475367
11.21236696,-9.119537972,4.260926857,-3.072128273,10.52423121
11.22236896,-8.03320658,3.620499453,-4.05607375,9.700111262
11.23237096,-6.940104112,2.942575609,-4.49472222,8.776464216
11.24237196,-5.795342664,2.538172819,-4.046385206,7.510096609
11.25237396,-4.702555361,2.39308001,-2.975181145,6.057438543
11.26237596,-3.715921919,2.462278883,-2.096963561,4.926271327
11.27237796,-2.512410572,2.628648541,-1.615431318,3.978896628
11.28237896,-0.598070759,2.99589286,-0.991368809,3.211833554
11.29238096,1.871169089,3.305095963,-0.135506007,3.800433523
11.30238296,4.157735488,3.14977345,0.728957173,5.266803179
11.31238396,5.871393889,2.05137282,1.045186582,6.30664821
11.32238596,7.329667253,0.76942049,2.093952245,7.661635983
11.33238796,8.288587816,-0.474002783,4.592350549,9.487626162
11.34238896,8.239853613,-1.763520241,6.828389549,10.84583307
11.35239096,7.093947279,-3.820913354,8.8374449,11.95925998
11.36239296,5.694543098,-5.335539844,11.76806412,14.12030948
11.37239496,3.818498454,-5.137853084,12.5802225,14.11525638
11.38239596,2.407269156,-4.212071031,10.93222686,11.96035415
11.39239796,1.699103659,-2.265645792,8.566453936,9.022429669
11.40239996,1.813061506,0.489676829,4.461474075,4.840632845
11.41240096,1.179373603,1.407061695,-0.672210529,1.955150047
11.42240296,1.386370153,-0.667254429,-5.271004125,5.490968508
11.43240496,3.074296128,-4.709919929,-8.558714561,10.24139821
11.44240596,2.003123058,-10.11675429,-14.89912063,18.12029291
11.45240796,-3.440808084,-13.04885344,-22.46670992,26.20810545
11.46240996,-7.902654042,-13.6588876,-19.21303262,24.86277889
11.47241196,-6.422343106,-9.225194235,-3.71155171,11.83749618
11.48241296,-1.726321717,-4.012285706,5.13127789,6.738593031
11.49241496,-0.761249298,-1.255528763,8.456677725,8.583195856
11.50241696,-4.256323636,0.497822,10.22958918,11.09092478
11.51241796,-5.095669516,2.09659811,8.535979418,10.15994666
11.52241996,-5.519735908,1.37873369,4.756930958,7.415981609
11.53242196,-6.186537178,-0.333958459,-0.322515458,6.203933166
11.54242296,-7.863187675,-3.568042327,-3.695456957,9.392393123
11.55242496,-9.473492739,-7.386349577,-5.039416963,13.02693164
11.56242696,-8.555924855,-9.632452805,-4.369469014,13.60442048
11.57242896,-5.224901753,-9.206246917,-4.021421688,11.32371021
11.58242996,-2.11910799,-6.442788481,-4.406030191,8.087845456
11.59243196,-0.538685413,-3.984451205,-3.440651963,5.291891846
11.60243396,0.633840223,-2.12535764,-1.76474991,2.834297227
11.61243496,1.631821941,-0.63672904,0.816595826,1.932639506
11.62243696,2.213022605,0.80164508,3.370147406,4.110717386
11.63243896,1.6292651,2.102407318,6.019085786,6.580578621
11.64243996,-0.213345274,3.187322515,6.112910793,6.897261731
11.65244196,-2.132218909,4.332131326,1.302322568,5.000976242
11.66244396,-3.86825592,5.622967331,-0.502097192,6.843483547
11.67244496,-5.292527726,6.392525815,0.929162182,8.350962722
11.68244696,-5.751677996,6.912161438,1.853509474,9.181245715
11.69244896,-4.877711922,6.534416104,1.216526373,8.244428654
11.70245096,-2.532557153,5.550282932,0.391665215,6.113336896
11.71245196,-0.215930036,5.046954609,-0.082448226,5.052244483
11.72245396,1.749619363,4.755064527,-0.450206662,5.086697613
11.73245596,2.904254712,4.153535725,-1.645129327,5.328508699
11.74245696,2.769070302,3.431152577,-2.674510008,5.15689462
11.75245896,2.288714519,2.806389863,-2.245460034,4.261000937
11.76246096,2.498602664,2.56506124,-1.299081603,3.80922137
11.77246196,3.071242128,2.30532032,-0.258320193,3.848864677
11.78246396,3.797834394,2.154349889,0.52900564,4.398251527
11.79246596,4.00093626,2.221815063,1.013696548,4.687380273
11.80246796,3.650717279,2.220554404,1.502684137,4.529531777
11.81246896,3.041194164,1.778634709,2.031814469,4.06702267
11.82247096,2.547878612,1.234441364,2.65079487,3.878433234
11.83247296,2.220402961,0.445019304,3.38787558,4.075037722
11.84247396,2.119898095,-0.547085962,4.359409171,4.878290613
11.85247596,2.611689861,-1.217199095,5.154874914,5.905525628
11.86247796,3.51413363,-1.457657652,5.447597054,6.64456279
11.87247896,4.237744986,-1.394637532,5.284159775,6.915622961
11.88248096,4.27368782,-0.789268863,5.631029472,7.113075695
11.89248296,3.521124561,-1.048358989,4.982873803,6.190832422
11.90248496,2.592214833,-1.27898253,3.896699701,4.851766957
11.91248596,1.388150192,-0.911698449,3.156925179,3.567118109
11.92248746,0.806900996,0.424082764,3.25525722,3.380478513
11.93248946,0.802261303,1.57227302,5.028459281,5.329265276
11.94249046,0.972786796,2.111806133,7.097348605,7.468493591
11.95249246,1.229952457,3.190735534,6.850117217,7.656218531
11.96249446,1.746385268,4.207286839,4.373561187,6.314994973
11.97249546,2.734079102,4.488593461,2.193668321,5.695159392
11.98249746,3.647414187,4.755129431,1.144399944,6.101191473
11.99249946,2.985199472,4.724390033,0.310731419,5.597127039
12.00250046,1.789622358,4.060123531,-0.114448137,4.438518857
12.01250246,1.732657175,3.299113092,-0.056592277,3.726855345
12.02250446,1.920668839,1.691125864,-0.638203708,2.637457004
12.03250646,1.496453344,-1.402482741,-1.01294635,2.287441968
12.04250746,-0.292265692,-6.521154034,-0.337145923,6.536400886
12.05250946,-5.117674928,-14.41214814,1.759632135,15.39470415
12.06251146,-10.59519218,-23.88583852,3.535016961,26.36830909
12.07251246,-14.29660248,-31.23932967,2.802690915,34.46945948
12.08251446,-14.82248235,-29.56347322,0.47525204,33.07462466
12.09251646,-9.862526708,-15.89934417,-2.430169191,18.86701621
12.10251746,-4.397794973,-5.372676095,-4.76855493,8.422907169
12.11251946,-0.081024209,-2.146002989,-7.238778133,7.550616042
12.12252146,3.993179052,-1.388663431,-10.41357065,11.23905328
12.13252346,8.358894153,0.295293746,-10.31954041,13.28349442
12.14252446,12.5453649,3.051625012,-9.03881599,15.76067227
12.15252646,12.86203373,4.76322724,-9.7701407,16.83971184
12.16252846,12.43031275,5.942032932,-9.003794092,16.45869796
12.17252946,11.11725031,4.75147726,-5.318716235,13.20827517
12.18253146,6.17817566,3.12132733,-0.79011057,6.966836692
12.19253346,2.494951078,3.569136341,1.907676618,4.754234448
12.20253446,0.181641562,4.310964405,2.465106012,4.969321423
12.21253646,-2.329852605,4.702090507,2.454302989,5.793226343
12.22253846,-4.343605902,5.160065487,1.727183889,6.962496122
12.23253946,-6.296774735,5.389546482,1.26531057,8.384366057
12.24254146,-7.910171807,5.392284148,0.757104499,9.603163727
12.25254346,-9.107614914,5.162942317,-0.42465813,10.47783171
12.26254546,-9.863414315,4.636409318,-1.634758997,11.02069282
12.27254646,-9.797960583,4.080722687,-2.558001897,10.91767846
12.28254846,-8.892911587,3.650194538,-3.089951464,10.09730641
12.29255046,-7.777649927,3.109744581,-3.407836512,9.04299173
12.30255146,-6.697068102,2.681598587,-3.294916545,7.930836474
12.31255346,-5.656920358,2.51836713,-2.818646212,6.803505523
12.32255546,-4.803192959,2.583334374,-2.221288522,5.888837048
12.33255646,-3.566930479,2.90239939,-1.719276699,4.90946307
12.34255846,-1.833854936,3.224750542,-1.253030248,3.915625721
12.35256046,0.134114662,3.491830888,-0.960853652,3.62410119
12.36256246,2.693531,3.740832227,-0.474971666,4.634062266
12.37256346,4.968453984,3.125093522,0.075030302,5.87004038
12.38256546,7.35168202,2.238743922,1.508472295,7.831646796
12.39256746,10.04384185,1.711806881,4.67690538,11.21082003
12.40256846,11.77436391,0.564273267,8.441832229,14.49891655
12.41257046,10.82498893,-2.474731114,10.20290716,15.07992023
12.42257246,9.190368218,-4.575621665,10.93175675,14.99674922
12.43257346,5.900754513,-5.119579366,10.28216617,12.91324661
12.44257546,2.81102729,-5.013475791,9.879601747,11.42993196
12.45257746,0.559891803,-4.518240598,8.096120281,9.288441233
12.46257846,-0.166149217,-3.706871014,3.914229069,5.393485652
12.47258046,0.570537682,-4.719993512,-0.73900035,4.811441937
12.48258246,2.520006689,-8.501358054,-6.048897815,10.73371731
12.49258446,3.268329256,-12.60707759,-11.82995456,17.59455047
12.50258546,-1.351011748,-12.31123654,-15.97668179,20.21499787
12.51258746,-5.67457661,-8.409560861,-15.75925424,18.74234852
12.52258946,-3.222197648,-4.653061604,-7.818861102,9.652363903
12.53259046,-0.65416646,-2.066837536,1.763448905,2.794548836
12.54259246,-3.826643625,-0.784701603,4.45622269,5.925949604
12.55259446,-6.091278434,0.776466385,1.541062921,6.33099107
12.56259546,-5.328417935,1.975285926,0.884346052,5.751161633
12.57259746,-4.213297485,2.052962093,1.850250236,5.038844609
12.58259946,-4.677774276,0.692636023,1.653089726,5.009393424
12.59260046,-6.204795109,-2.124917344,1.835336328,6.81052241
12.60260246,-8.046168687,-5.782470018,0.106882132,9.909047071
12.61260446,-8.634829522,-8.91241556,-1.677511792,12.5221994
12.62260646,-6.748326548,-9.454917889,-2.707710498,11.92757644
12.63260746,-3.236428016,-7.350431301,-3.595925652,8.799658397
12.64260946,-0.930255904,-5.212495131,-3.688276868,6.452818593
12.65261146,0.821141159,-3.057946436,-2.302480912,3.914936469
12.66261246,2.408534786,-0.996099499,-0.166199211,2.611680724
12.67261446,3.17209578,0.850088092,1.191257923,3.493413351
12.68261646,3.309602704,2.177208409,1.742329931,4.327750005
12.69261746,2.605276635,3.220562766,2.430946578,4.803019066
12.70261946,1.331815047,3.602887055,3.06372524,4.913342934
12.71262146,0.309293734,3.776465744,3.682340483,5.283652862
12.72262246,-0.923262049,4.676434094,1.921877459,5.139558504
12.73262446,-2.167272528,5.904770966,-0.981810658,6.366108901
12.74262646,-3.47403401,6.182766894,-1.890130586,7.339489927
12.75262846,-4.57837658,5.508106965,-0.913951966,7.22053202
12.76262946,-4.774941552,5.214668541,0.638715778,7.099351566
12.77263146,-4.800203862,4.604613329,0.556485799,6.674885578
12.78263346,-3.819296599,3.534065911,-0.093270252,5.204358531
12.79263446,-1.79034712,3.129824504,-0.971990259,3.734422218
12.80263646,0.375243493,3.530375733,-0.672663835,3.613424571
12.81263846,1.784518615,3.702019579,-0.598804584,4.153073872
12.82263946,2.380566091,3.421653775,-0.724255573,4.230763005
12.83264146,2.706779621,2.909819507,-0.392705581,3.993485089
12.84264346,3.077986014,2.752885501,0.30779787,4.140907632
12.85264446,3.275309954,2.633309941,1.261512073,4.387868418
12.86264646,3.561309843,2.278074049,1.990108472,4.672588244
12.87264846,3.264387648,1.677637507,2.589097974,4.49156127
12.88264946,3.081660989,1.250589035,2.698278939,4.282676338
12.89265146,3.411991543,0.966212626,2.504125652,4.341186291
12.90265346,3.571398629,0.674316112,2.538870392,4.433447107
12.91265546,3.667739985,0.702115529,2.746585127,4.635624302
12.92265658,3.302624345,0.404301633,3.577752213,4.885805796
12.93265858,2.994714939,0.580887546,4.657738207,5.567788889
12.94266058,2.989386079,1.065280246,4.973674378,5.899888809
12.95266158,2.345353574,0.588865487,4.923540351,5.485316357
12.96266358,1.139819601,-0.821241438,5.21709689,5.402936811
12.97266558,0.17627506,-2.551079963,5.184962347,5.781255608
12.98266658,-0.66022403,-3.753632952,4.635531067,6.001150255
12.99266858,-1.318246875,-4.399198889,4.078408359,6.141998082
13.00267058,-1.265788872,-3.204781131,3.753221308,5.095047964
13.01267158,-0.902050105,-1.483320497,4.030605032,4.388588727
13.02267358,0.400177007,-0.139377741,2.88814154,2.919063094
13.03267558,2.212781992,0.85467114,2.253961301,3.272187105
13.04267758,3.823845733,1.851582817,1.901188256,4.654532404
13.05267858,4.308870517,2.337343765,1.428484724,5.105889699
13.06268058,4.193961327,1.934771154,1.528310144,4.865016231
13.07268258,4.327525181,1.606773931,1.217375681,4.774013009
13.08268358,3.696949459,1.363915676,0.362784063,3.957185054
13.09268558,2.331399778,0.904034504,-0.035275229,2.500789406
13.10268758,1.294032824,0.255095893,0.204294114,1.334665108
13.11268858,0.03056992,-1.078206101,0.786445681,1.334900643
13.12269058,-2.362111694,-3.650740668,0.8519937,4.430956143
13.13269258,-5.090677748,-7.789236769,1.079156712,9.367592465
13.14269358,-8.062427455,-12.99087362,0.877712093,15.31456537
13.15269558,-11.13518255,-17.54568154,0.149184106,20.78137356
13.16269758,-12.39277129,-18.82661236,-0.04744153,22.53939582
13.17269858,-10.22104406,-15.49293111,-0.079204044,18.56089786
13.18270058,-5.63000504,-9.404761643,-1.183127369,11.02480334
13.19270258,-2.495641927,-5.466922102,-2.616271155,6.55441383
13.20270458,0.652530556,-2.960903707,-4.403141667,5.346064293
13.21270558,4.864425878,-0.29695494,-5.814294659,7.586622683
13.22270758,7.922404767,1.382654833,-6.589150136,10.39678466
13.23270958,9.835854049,3.460192189,-7.382485152,12.77568166
13.24271058,10.40126928,4.853973103,-8.658773285,14.37782363
13.25271258,10.40100615,5.412341267,-8.263100388,14.34409966
13.26271458,6.727315748,4.775489436,-6.72799461,10.64556189
13.27271558,2.664152834,4.511775917,-4.939895598,7.201138852
13.28271758,1.019851766,4.585678875,-3.26246099,5.719458024
13.29271958,-0.460143274,4.386384716,-0.955463689,4.512761191
13.30272058,-2.15977479,4.311645606,0.850725731,4.896799898
13.31272258,-3.954797636,4.288279547,1.6978066,6.075550433
13.32272458,-5.802181567,4.267058832,1.794868333,7.422577339
13.33272558,-7.529548473,4.31036565,1.317611867,8.775503022
13.34272758,-9.010761634,4.127996841,0.454002382,9.921708588
13.35272958,-9.745104092,4.051307099,-0.888520379,10.5910156
13.36273058,-9.452838035,3.987956026,-2.103500455,10.47304418
13.37273258,-8.126181402,3.792178967,-2.978798233,9.449268988
13.38273458,-6.301280015,3.17946795,-3.49938666,7.877871112
13.39273658,-4.664384737,2.559940833,-3.436462433,6.333960538
13.40273758,-3.362807397,2.392713389,-2.979586145,5.090332459
13.41273958,-2.105413957,2.464476267,-2.458446034,4.068214363
13.42274158,-0.973721327,2.711250402,-2.025505323,3.521602445
13.43274258,0.518620839,3.125843135,-1.570339638,3.53635822
13.44274458,2.604239339,3.519461905,-0.868587221,4.463532054
13.45274658,4.965281285,3.674589706,0.009107623,6.177111841
13.46274758,7.105914776,3.161487762,0.818927403,7.820464932
13.47274958,9.332462575,2.541512164,2.277073005,9.9367602
13.48275158,11.57448503,2.01805597,4.921799635,12.73834233
13.49275258,13.50942692,0.540872126,8.285963001,15.85731192
13.50275458,13.36992873,-2.766094362,10.03647085,16.94511786
13.51275658,10.1225559,-4.77496611,8.780631598,14.22553797
13.52275758,6.271796014,-5.363318211,8.91782365,12.15023399
13.53275958,2.9373596,-5.387111117,9.132629303,11.00245271
13.54276158,1.092686877,-3.651810123,6.337381893,7.395410134
13.55276258,-0.472923387,-1.268158164,0.8592805,1.603198252
13.56276458,-2.205307935,-0.050539239,-4.827232324,5.307363678
13.57276658,-1.013674329,-1.111206617,-8.775947978,8.903908058
13.58276758,-0.10426755,-4.931244058,-10.40389234,11.51386188
13.59276958,-1.856562452,-9.741808602,-10.87603512,14.71862082
13.60277158,-5.046891459,-12.01378517,-10.16433542,16.52621742
13.61277358,-7.443325431,-11.64983342,-8.741068168,16.35628274
13.62277458,-7.571997505,-8.357025383,-5.633202882,12.60587142
13.63277658,-3.63609924,-4.216529533,-0.602047158,5.600249973
13.64277858,2.413270153,-1.999493984,4.216610225,5.253727326
13.65277958,1.078494661,-1.221312026,9.167255344,9.310925
13.66278158,-2.634855068,-0.853812184,10.78402451,11.13403076
13.67278358,-3.440604016,-0.788048549,6.318076726,7.23718661
13.68278458,-4.657065777,-1.639352862,-0.005631453,4.937182514
13.69278658,-6.355592462,-3.039924733,-3.926222878,8.06535331
13.70278858,-8.038206534,-5.348998965,-5.70577326,11.21518625
13.71278958,-8.599453282,-7.048852383,-5.649372772,12.47206195
13.72279158,-7.307860647,-7.645870058,-5.986030891,12.15305402
13.73279358,-4.450173161,-6.550621077,-5.650303649,9.728340505
13.74279458,-2.606470052,-4.607952089,-4.346687384,6.849861298
13.75279658,-1.334920211,-2.824453082,-2.277023012,3.865796293
13.76279858,-0.130237373,-1.019664947,0.736583111,1.264607867
13.77279958,0.64663415,0.413757166,4.870617203,4.930744634
13.78280158,1.000821564,1.549459523,7.71806446,7.935426115
13.79280358,1.375323594,2.480449691,6.525474542,7.115192454
13.80280458,0.510698702,3.621457227,2.113621693,4.224116745
13.81280658,-0.965780882,4.814480424,-1.268708095,5.07164418
13.82280858,-2.208588662,5.495204499,-0.326138686,5.931399734
13.83280958,-3.053332106,5.828792245,0.944349886,6.647514776
13.84281158,-2.924916141,6.171816228,-0.07047766,6.830184264
13.85281358,-1.615456754,5.81646573,-0.548971104,6.061546287
13.86281458,0.802441324,5.336053814,-1.287447836,5.547513346
13.87281658,2.273436476,4.90747805,-2.091523896,5.798821124
13.88281858,2.489825701,4.137147149,-2.322549725,5.358120545
13.89282058,2.057117271,3.343873528,-2.526504115,4.668666264
13.90282158,1.022285085,2.704616151,-2.897638003,4.093448585
13.91282358,0.828208396,2.434435612,-2.081414791,3.308276504
13.92282558,0.955513025,2.509299853,-0.617834347,2.755233234
13.93282658,1.45519349,2.690085821,0.37768847,3.081687589
13.94282858,2.391935271,2.776426976,0.885903457,3.770242172
13.95283058,2.87883745,2.670888827,1.59534891,4.238689695
13.96283158,2.790097767,2.38496232,2.20096667,4.279830031
13.97283358,2.823192422,2.190821897,2.777357853,4.525906835
13.98283558,2.939605224,1.965968973,3.579368384,5.031718484
13.99283658,3.25649683,1.62173871,4.237009991,5.584537735
14.00283858,3.606654416,1.401465325,4.672240471,6.066456309
14.01284058,3.772570329,1.111311282,4.474889926,5.957511184
14.02284158,3.518471972,0.292432703,3.569059158,5.020293336
14.03284358,2.627006643,-1.25945166,2.609422311,3.911069826
14.04284558,1.523990806,-3.292815056,1.958012667,4.122983455
14.05284658,0.693483869,-4.607185519,1.083407784,4.783393222
14.06284858,-0.288617395,-4.07171856,1.754280471,4.442937317
14.07285058,-0.801630316,-2.451072695,4.092179137,4.836972049
14.08285158,0.15709115,-1.184138353,4.537344037,4.691945457
14.09285358,2.110272993,-0.529514494,3.551178373,4.164673521
14.10285558,3.97871304,0.443087969,3.941056679,5.617687438
14.11285658,4.520949029,1.818244917,3.748337713,6.147766286
14.12285858,3.663542562,1.904232316,2.967563685,5.084690653
14.13286058,2.948239222,1.521012819,2.296008044,4.034507088
14.14286158,2.867714877,1.617052751,1.19762481,3.503277522
14.15286358,2.859825228,1.711260166,-0.259822197,3.342831026
14.16286558,2.571344073,1.523433566,-0.268676636,3.000807776
14.17286658,1.62037894,0.400781609,-0.21482451,1.682974562
14.18286858,0.307103404,-1.853630512,-0.119906074,1.882720383
14.19287058,-2.089744588,-5.3239454,0.315606973,5.728091727
14.20287158,-5.935160699,-10.09290467,0.410938515,11.71587502
14.21287358,-10.13616704,-15.36955135,0.136207234,18.41150574
14.22287558,-12.28581519,-18.20475513,-0.311116896,21.96477083
14.23287658,-11.18811388,-16.55662033,-0.473597863,19.987993
14.24287858,-6.845191523,-10.99092706,-1.3180852,13.01516321
14.25288058,-2.575472208,-5.773408588,-2.548537301,6.81618267
14.26288258,1.118556274,-2.360375948,-3.063017434,4.025496063
14.27288358,4.502867391,-0.135487003,-2.849656628,5.33054541
14.28288558,6.755943716,1.024502349,-2.460145527,7.262554411
14.29288758,8.502377808,2.801391079,-2.444127957,9.279654187
14.30288858,9.067011849,4.274260263,-4.112207605,10.8346784
14.31289058,8.515416514,4.661589768,-6.356269569,11.60365892
14.32289258,5.951739895,3.574104136,-6.49082862,9.504119334
14.33289358,1.774334958,3.160172723,-4.863550842,6.06540048
14.34289558,-0.20397047,3.441171196,-4.166306044,5.407528937
14.35289758,-1.649024595,3.222708694,-2.846884171,4.605418866
14.36289858,-3.096328729,2.993618878,-1.711273615,4.63437838
14.37290058,-3.956571681,2.914764497,-0.613196336,4.952405606
14.38290258,-4.766164881,2.758867203,-0.205584886,5.510892946
14.39290358,-5.514910786,2.822456258,-0.336874174,6.204352062
14.40290558,-5.993504217,3.096613489,-0.725817218,6.785124799
14.41290758,-6.393036277,3.391908404,-1.577434357,7.407040881
14.42290858,-6.137021787,3.762275721,-2.642777168,7.668247921
14.43291058,-5.675050235,4.003285671,-3.540626487,7.795417067
14.44291258,-5.165598707,3.903322257,-4.216718691,7.72658082
14.45291358,-4.207591479,3.704530374,-4.171562983,6.987797154
14.46291558,-3.35246835,3.528889956,-3.410424782,5.943324453
14.47291758,-3.082506496,3.395146592,-2.669536074,5.306155815
14.48291858,-2.631347031,3.391879753,-2.208188127,4.827518023
14.49292058,-1.634854892,3.456814837,-2.076427847,4.351306923
14.50292258,0.207337443,3.607975886,-1.79588341,4.035551516
14.51292358,2.630972224,3.450541944,-0.427305457,4.360142716
14.52292558,5.612451698,2.96187259,1.055883771,6.43328795
14.53292758,8.925391116,2.247782548,2.78006219,9.614773983
14.54292858,11.25877281,1.246867867,5.550660077,12.61445488
14.55293058,11.98975312,-0.830481793,7.493991555,14.16346671
14.56293258,11.40369722,-3.773781872,9.064678225,15.04839298
14.57293358,9.51406306,-5.692493649,9.503078481,14.60241009
14.58293558,6.707957371,-6.383831005,7.500163876,11.91647803
14.59293758,4.335234443,-6.959222753,5.059181721,9.634332291
14.60293858,2.139078424,-7.841011525,1.802606539,8.325053067
14.61294058,0.831998122,-9.422662894,-3.941650756,10.24770255
14.62294258,0.458225095,-10.63505382,-8.649278576,13.71584339
14.63294358,0.902521829,-9.66113983,-9.989146993,13.92606284
14.64294558,0.21483752,-7.812341457,-10.84874149,13.37064045
14.65294758,-0.060727135,-6.939705332,-8.013200331,10.60068759
14.66294858,-1.294277969,-5.723701408,-0.527754482,5.891895965
14.67295058,-6.307286274,-4.175359288,0.672085107,7.593891211
14.68295258,-8.329618313,-2.74876146,-1.779705626,8.950172229
14.69295358,-8.15090226,-1.911523794,-1.977392678,8.602395752
14.70295558,-6.883224152,-1.183128539,-0.691480613,7.018312711
14.71295758,-5.500531898,-0.87317173,1.986289217,5.913004725
14.72295858,-5.792584532,-1.765314167,2.160695288,6.429539159
14.73296058,-6.613240664,-3.289074007,0.58817113,7.409379541
14.74296258,-7.068445233,-4.312898664,1.060225036,8.347939268
14.75296358,-7.341899044,-4.386005232,1.755824428,8.73060381
14.76296558,-7.433634256,-3.359395546,1.504299138,8.295020951
14.77296758,-6.728884556,-2.087768814,1.408713826,7.184785358
14.78296858,-4.666056456,-1.410206913,1.579754532,5.12409902
14.79297058,-2.965614808,-0.700978246,1.731219344,3.504762775
14.80297258,-1.425646047,0.097738549,2.228297579,2.647136108
14.81297358,0.205808981,0.655958778,3.055816296,3.132196113
14.82297558,1.725242321,1.129241184,3.675902698,4.214725064
14.83297758,2.614345959,1.900093072,3.686448736,4.902556758
14.84297858,2.862191597,2.810897482,3.653280698,5.425840511
14.85298058,2.972989901,3.901390337,2.619550273,5.560715705
14.86298258,3.113767465,4.86479396,0.522306485,5.799532065
14.87298358,3.426530645,5.735128037,-1.37184947,6.820174252
14.88298558,3.454958931,5.797411408,-1.314423088,6.875640211
14.89298758,2.484649161,5.124717314,-0.515795757,5.718588486
14.90298858,1.040468171,4.391181187,-0.618984495,4.555017897
14.91299058,-0.123671334,3.89617696,-1.626662212,4.223922283
14.922992,-0.572740986,3.455083476,-1.876981514,3.97349892
14.932993,-0.485944844,3.053218963,-0.860314434,3.209116599
14.942995,-0.653702484,2.481218015,-0.160975163,2.570930333
14.952997,-0.632044543,2.017674147,0.330307897,2.139998265
14.962998,-0.837855278,1.914866062,0.686788077,2.200088945
14.973,-1.261849895,1.806067505,0.750549624,2.32754586
14.983002,-1.491365681,1.858280218,0.900558919,2.547230521
14.993003,-1.102760533,2.100751387,1.178907288,2.649350784
15.003005,-0.342023378,2.48975378,1.623746059,2.992057008
15.013007,0.319158937,2.678209541,1.92026889,3.310906429
15.023008,1.226647026,2.620664168,2.151126173,3.605535663
15.03301,1.836742876,2.196348685,2.527497557,3.819138102
15.043012,2.57749359,1.607718841,3.004397635,4.272544702
15.053013,3.212220836,1.090428536,3.428265806,4.822904056
15.063015,3.28180124,0.560773709,3.33797778,4.714528841
15.073017,2.893703411,-0.129046295,3.334620309,4.416997281
15.083018,2.714916022,-0.383835794,2.967067257,4.039998394
15.09302,2.550848705,-0.51538879,2.548219505,3.642235216
15.103022,2.396583515,-0.606812931,2.229185333,3.328828882
15.113023,2.398051166,-0.794060072,1.602346565,2.991436997
15.123025,1.671567805,-1.015668375,1.605268857,2.53033778
15.133027,0.573230032,-1.133997894,2.787819691,3.063736693
15.143028,0.677840375,-0.939009039,3.604658761,3.786128674
15.15303,1.78534205,-0.411245787,3.815697053,4.232743003
15.163032,2.631882344,0.253764482,3.39067815,4.299755737
15.173033,3.165507722,0.833649815,2.556274629,4.153306049
15.183035,3.40874283,1.774089668,1.536528844,4.138579795
15.193037,3.113349389,2.796019827,0.477146684,4.211690901
15.203038,2.525507165,3.156632819,0.23413991,4.049362751
15.21304,2.184875863,3.269858887,0.184889397,3.936984096
15.223042,2.224648624,3.277799991,0.175682372,3.965337133
15.233043,2.191755259,2.610498784,0.307028377,3.422391187
15.243045,1.584317991,0.528878902,0.705487618,1.81314345
15.253047,-0.010112577,-2.793034823,1.093533407,2.999493474
15.263048,-2.968926964,-7.363039067,1.435113128,8.067739542
15.27305,-6.606137466,-12.47511061,2.163025403,14.28104043
15.283052,-9.382930478,-16.92963995,2.647170474,19.53611027
15.293053,-10.13138987,-18.60039528,2.144105421,21.28889272
15.303055,-7.589152651,-14.7636348,-0.43639086,16.60573959
15.313057,-2.770888494,-8.518207975,-3.305287752,9.547911671
15.323058,1.45611618,-5.459036547,-4.795515272,7.410689649
15.33306,3.713929188,-3.666536921,-6.604880315,8.417909894
15.343062,4.930334816,-1.680210866,-6.769574745,8.541571997
15.353063,5.717510961,0.726177991,-6.564840921,8.73581149
15.363065,6.344764588,2.373435119,-6.871765949,9.649372995
15.373067,6.873799025,3.108103852,-5.8619635,9.553640074
15.383068,5.514906108,2.00422672,-2.782416279,6.494070717
15.39307,1.45874158,0.852676654,-0.898431994,1.91367827
15.403072,-0.821645189,0.973318747,-0.295018927,1.307473275
15.413073,-2.246241953,0.952099786,0.70837205,2.540450329
15.423075,-3.585433116,0.624048768,1.017797347,3.778978557
15.433076,-4.477589586,0.257844669,0.872029184,4.568996309
15.443078,-4.949906031,0.184373819,0.163722038,4.956043617
15.45308,-5.04054723,0.783528067,-1.337915154,5.273618261
15.463081,-4.659297659,1.901420975,-2.977342861,5.847138353
15.473083,-4.26598236,2.828272483,-3.996737959,6.493969899
15.483085,-4.095963455,3.503546369,-4.17766543,6.819431225
15.493086,-4.065815211,4.021816083,-4.013886673,6.98692666
15.503088,-4.314123071,4.493423261,-3.717177317,7.253958759
15.51309,-4.654129305,4.802837448,-3.370142436,7.489060501
15.523091,-4.608517515,4.989303986,-2.664828188,7.296087802
15.533093,-4.254058425,4.999188119,-1.785463672,6.80270354
15.543095,-3.765548408,4.929364178,-1.019686582,6.286314241
15.553096,-2.988789663,4.860341306,-0.292240915,5.713246538
15.563098,-1.946344986,4.717327766,0.260428261,5.109722394
15.5731,-0.607946998,4.530571207,0.826570591,4.645308811
15.583101,1.081081177,4.320854385,1.470563627,4.690530515
15.593103,2.766232941,3.955047312,1.907841218,5.189826782
15.603105,3.83166843,2.892667869,2.038138232,5.215670409
15.613106,4.53755746,1.789296522,2.441609561,5.454582202
15.623108,5.049427396,0.96198158,3.094029897,5.999595536
15.63311,5.228304248,0.197766282,4.09899816,6.646507558
15.643111,6.159341778,-0.300816441,6.216411188,8.756240616
15.653113,6.090122439,-1.146207465,7.825473719,9.982054989
15.663115,5.023639421,-1.823927826,8.430372856,9.981725914
15.673116,3.872041115,-2.466205873,7.095925977,8.451451904
15.683118,2.550450802,-3.008769599,4.889611005,6.28218032
15.69312,2.07979175,-2.893174823,3.226809347,4.807108574
15.703121,3.070818205,-2.625681664,2.000608171,4.50849883
15.713123,3.830674404,-3.832296714,-0.394771841,5.432900634
15.723125,4.095479305,-6.478586889,-3.705033819,8.513067274
15.733126,4.050389087,-8.456381271,-7.238683993,11.84544562
15.743128,0.92741138,-8.691720591,-10.66470038,13.78919624
15.75313,-3.203549415,-7.978355604,-13.42451366,15.94159509
15.763131,-4.594504078,-6.737849507,-11.68056054,14.2458267
15.773133,-4.637407438,-5.696273873,-5.605870657,9.240068702
15.783135,-4.554347155,-4.045998997,-0.237113658,6.09658993
15.793136,-4.309074585,-2.271674271,2.802810783,5.61999787
15.803138,-4.495873829,-1.26770559,2.604211273,5.348072111
15.81314,-4.285082582,-0.205837194,2.733082444,5.086653254
15.823141,-3.780811395,0.406461595,4.027292292,5.538847266
15.833143,-4.116443328,0.026831118,4.519915826,6.113547632
15.843145,-4.618047015,-0.583352732,3.246467686,5.675051636
15.853146,-4.915215086,-1.375700739,2.062012414,5.504887561
15.863148,-6.049230521,-2.371579213,1.078710716,6.586440212
15.873149,-7.849240896,-3.104572719,0.34945402,8.448140181
15.883151,-9.102796224,-4.063521348,0.229808731,9.971254529
15.893153,-9.082157891,-4.666997858,-0.216655274,10.21339319
15.903154,-7.11683562,-4.073331807,-0.571391229,8.219967712
15.913156,-4.501735663,-3.087786532,-1.013094724,5.552153687
15.92315858,-2.53312024,-2.402031512,-1.068836084,3.650871692
15.93315958,-1.365817483,-1.50780162,-0.19036166,2.043320994
15.94316158,-0.587777393,-0.288810938,1.300253823,1.455868822
15.95316358,-0.162132327,0.865586137,1.560397763,1.791749824
15.96316458,0.310381901,1.904290788,1.65089702,2.539315125
15.97316658,0.897494685,2.732864635,2.156416295,3.595021149
15.98316858,1.167408592,3.235759095,2.974663374,4.547702929
15.99316958,1.475929032,3.935332839,2.654927682,4.971302854
16.00317158,1.847479387,4.813814426,1.140080752,5.280698205
16.01317358,1.849801316,4.950428188,-0.457408385,5.304500597
16.02317458,1.610858796,4.31850322,-1.605132033,4.880654153
16.03317658,1.346914604,3.750932123,-1.948248986,4.436140761
16.04317858,1.03416765,2.998802435,-2.430665035,3.996304704
16.05317958,0.732585662,2.345181958,-2.115661202,3.242311288
16.06318158,0.450874779,2.006194308,-1.184219337,2.372863061
16.07318358,0.207358274,1.780854896,-0.576909831,1.883418851
16.08318458,-0.255375938,1.556369178,-0.471495058,1.646149895
16.09318658,-0.644174154,1.431110124,-0.550668112,1.663211321
16.10318858,-0.644521551,1.49213576,0.049312932,1.626133119
16.11318958,-0.539450704,1.552128192,0.697728802,1.785198719
16.12319158,-0.387047815,1.536721948,0.64429943,1.710684692
16.13319358,-0.142665301,1.399698882,0.667726592,1.557359672
16.14319458,0.315619179,1.337175774,0.715067697,1.548862914
16.15319658,0.805234832,1.25785537,1.019215004,1.808148913
16.16319858,1.482413886,1.246969609,1.753653357,2.613002915
16.17319958,2.209915395,1.303977622,2.38401434,3.502514535
16.18320158,2.799805899,1.231881453,2.878162097,4.200031195
16.19320258,3.145263785,1.024537432,3.178815985,4.587726266
16.20320458,3.197994268,0.628759285,3.121657698,4.513009236
16.21320658,3.396659267,0.368058252,2.58341565,4.283316177
16.22320758,3.638973731,0.130556631,2.132009286,4.219554294
16.23320958,3.939191417,-0.130820341,2.326404794,4.57673489
16.24321158,3.875595638,-0.433673367,2.803679679,4.803013
16.25321258,2.933021843,-0.97647215,2.683120033,4.093317494
16.26321458,1.183824211,-1.289039156,2.567573789,3.10732954
16.27321658,-0.162622177,-1.36987048,3.082060354,3.376697666
16.28321758,-0.812961781,-1.240136552,3.915626553,4.187000935
16.29321958,0.02869448,-0.534885162,4.100106207,4.134948176
16.30322158,1.239162699,0.001060685,3.502389205,3.715138687
16.31322258,2.189386259,0.591303776,3.055994051,3.805542272
16.32322458,2.550501381,1.460266095,2.450735164,3.826687498
16.33322658,2.517064371,2.644507359,1.402147695,3.910888694
16.34322758,2.532549259,3.429455715,0.486533512,4.290884187
16.35322958,2.531031615,3.909255427,0.105469006,4.658274653
16.36323158,2.433449918,4.307687041,-0.156222546,4.949974912
16.37323258,2.510271952,4.615527742,-0.132718347,5.255680334
16.38323458,2.452163639,4.442516232,0.071392603,5.074855061
16.39323658,1.49454642,3.307005664,0.381567513,3.649047715
16.40323758,-0.061624062,0.765318083,0.963470135,1.231983764
16.41323958,-2.389515401,-3.509886505,1.993592974,4.690788854
16.42324158,-5.464917676,-8.681449372,3.483404465,10.8336049
16.43324258,-8.409536303,-13.47801451,4.481232401,16.5063206
16.44324458,-9.654550018,-16.29443118,4.112901962,19.38129991
16.45324658,-8.569611433,-15.87495778,2.166110102,18.1698805
16.46324758,-4.965280116,-12.21828686,-0.924681022,13.22102778
16.47324958,-1.110978502,-8.732530648,-2.826606904,9.245597403
16.48325058,1.857091186,-6.047086932,-4.09090152,7.53336069
16.49325258,4.623513284,-3.681947258,-6.510857087,8.79345613
16.50325458,7.163080664,-1.25317292,-8.998682456,11.56963495
16.51325558,9.069586378,1.879764642,-10.65171722,14.11559393
16.52325758,9.730600074,4.459553264,-11.33842943,15.59269621
16.53325958,8.647325022,4.882805139,-10.78307024,14.65921621
16.54326058,4.616632573,3.12322826,-7.708455731,9.512525471
16.55326258,0.807670197,1.538103645,-4.673213156,4.985681014
16.56326458,-0.870954904,1.457650051,-2.043713552,2.65707945
16.57326558,-2.23751513,1.437762501,1.669749905,3.140334331
16.58326758,-4.29056347,1.215879378,4.712945863,6.48838626
16.59326958,-6.287551337,1.024356169,5.552162227,8.450391279
16.60327058,-7.556324043,1.099948388,4.30285344,8.764842681
16.61327258,-7.794555981,1.222541696,2.316466574,8.222878361
16.62327458,-7.039297448,1.290599193,0.159512628,7.158407582
16.63327558,-5.266435111,1.406678703,-2.220059437,5.885809006
16.64327758,-3.634189539,1.34356912,-4.2943741,5.783957166
16.65327958,-2.910522342,1.264763271,-4.913634583,5.84932229
16.66328058,-3.198890646,1.200114115,-4.328661003,5.514569914
16.67328258,-3.505857773,1.377500512,-3.709906889,5.286960895
16.68328458,-3.459835508,1.56457633,-3.202620585,4.967407719
16.69328558,-3.185755461,1.738233957,-2.504610971,4.409486507
16.70328758,-2.60985559,1.86550036,-1.669662197,3.616518995
16.71328858,-1.835727361,1.944914319,-0.927106447,2.830567614
16.72329058,-0.996346836,1.973521821,-0.46902154,2.259972699
16.73329258,-0.18882355,2.006448662,-0.13147172,2.019597826
16.74329358,0.732121686,2.179819776,0.187567568,2.307118985
16.75329558,1.810716188,2.339244111,0.480521259,2.996941241
16.76329758,3.09057273,2.485637341,0.912970219,4.069833831
16.77329858,4.10565463,2.041129668,1.23233432,4.747763488
16.78330058,4.949113149,1.431404824,1.806251985,5.459412694
16.79330258,5.726506317,1.139828737,3.026459472,6.576590385
16.80330358,6.814425228,1.041043537,5.127999941,8.591655617
16.81330558,7.974281849,0.470421363,7.409087645,10.89518458
16.82330758,7.674802081,-0.678935412,8.434968767,11.42419531
16.83330858,6.014978701,-1.65257634,7.58165652,9.817967862
16.84331058,3.878094445,-2.355468965,5.224505312,6.919776465
16.85331258,2.237266038,-2.25653583,3.160256338,4.481577111
16.86331358,1.661262525,-1.546808395,1.339829533,2.635821042
16.87331558,1.849908905,-1.089675999,-0.835585828,2.303857725
16.88331758,2.274781482,-1.377260191,-3.152419315,4.124224044
16.89331858,2.221073636,-2.513429157,-4.685720935,5.762505957
16.90332058,2.015023458,-4.463292559,-5.070607181,7.049280614
16.91332258,1.06052953,-6.496652446,-4.092512721,7.751120968
16.92332321,-0.688377057,-7.880235817,-2.99045875,8.456643722
16.93332521,-2.621287189,-8.500549968,-3.016807766,9.393169081
16.94332621,-4.961850139,-8.242577246,-4.20099085,10.49801698
16.95332821,-5.934973004,-5.343063456,-4.980708579,9.411678363
16.96333021,-3.894734159,-1.192633772,-4.303652462,5.925601573
16.97333121,-1.97486595,1.109516771,-2.086219887,3.079518859
16.98333321,-1.823064484,1.634342383,0.015862327,2.4484466
16.99333521,-2.029844103,1.819909619,1.606043029,3.164128998
17.00333621,-1.375439076,2.108575546,3.284781566,4.138564174
17.01333821,-1.282369091,1.958183405,2.832746773,3.674698221
17.02334021,-1.881401716,1.405217484,0.905108637,2.516650599
17.03334121,-2.693025508,0.32781479,0.107729101,2.715042262
17.04334321,-4.352725804,-1.370293234,0.277585746,4.571758887
17.05334521,-6.256423684,-3.159556426,0.288700718,7.01491142
17.06334621,-7.640937347,-5.092948222,-0.050594495,9.182842966
17.07334821,-8.134929421,-6.461274453,-0.764205358,10.41677273
17.08335021,-6.619225874,-5.475362558,-0.890217241,8.636332152
17.09335121,-4.573601452,-3.457445167,-0.563188901,5.760984209
17.10335321,-3.12148579,-1.983876071,-0.079172469,3.699419695
17.11335521,-1.839909289,-0.890197653,1.017503232,2.283206272
17.12335621,-1.08667572,-0.155137156,1.936594608,2.226057127
17.13335821,-0.890061047,0.327641712,2.431027855,2.60949309
17.14335921,-0.819611966,1.066107042,2.024572107,2.430481478
17.15336121,-0.480902059,1.708624826,1.568318255,2.368604597
17.16336321,-0.090057865,2.186268085,0.967461883,2.392459207
17.17336421,0.387752332,2.857393956,0.007689089,2.883593455
17.18336621,0.68792229,3.104995472,-0.162535931,3.184439023
17.19336821,0.935080514,3.169594926,-0.603793136,3.359356146
17.20336921,0.976700776,3.151511827,-1.543131959,3.642420547
17.21337121,0.432204437,2.431569307,-1.874219435,3.100327154
17.22337321,0.065057113,1.852295008,-1.464859376,2.362422954
17.23337421,-0.00743959,1.51152922,-0.925137982,1.772189667
17.24337621,0.012627181,1.197896851,-0.648007734,1.361994984
17.25337821,-0.036108073,0.997315135,-0.292894049,1.04006163
17.26337921,-0.135335469,0.996871916,-0.435649141,1.096293519
17.27338121,-0.152532605,1.195874884,-0.322809281,1.24803396
17.28338321,0.201264123,1.580343347,0.021695801,1.593255487
17.29338421,0.516311262,2.092436646,0.267044093,2.171676998
17.30338621,0.888322597,2.648225019,0.087705896,2.794620745
17.31338721,1.526782266,3.090153485,0.248329348,3.455688081
17.32338921,1.851545248,3.127928837,0.659116275,3.694129516
17.33339121,2.025457229,2.980376104,1.241405983,3.811326216
17.34339221,2.242212198,2.717197605,1.617009336,3.87626077
17.35339421,2.569465363,2.380754079,1.821412938,3.948124533
17.36339621,2.941860202,2.061035929,1.963927125,4.093827097
17.37339721,3.094570179,1.630367446,1.805372272,3.936220477
17.38339921,3.180038053,1.240658124,2.15215309,4.035298939
17.39340121,3.184482522,0.777761543,2.235034595,3.967520837
17.40340221,2.863135045,0.093279462,2.407215069,3.741781358
17.41340421,2.259792875,-0.684741113,2.384731794,3.355961853
17.42340621,1.804297846,-1.328422492,2.318606509,3.224303518
17.43340721,1.458977661,-1.704056981,2.339618479,3.241333157
17.44340921,1.10878258,-1.633683987,2.416743253,3.120732307
17.45341121,0.28490953,-1.237346261,2.422855786,2.735402963
17.46341221,-0.559781875,-0.581748841,2.307695897,2.444841061
17.47341421,-0.282041324,-0.080793902,2.764779323,2.780302082
17.48341521,0.529211243,0.345052382,3.598130929,3.65317285
17.49341721,1.475725695,1.101058774,4.267945855,4.648167227
17.50341921,2.347877817,2.086542068,4.499904315,5.487743333
17.51342021,2.90137642,3.325064204,3.966934701,5.933852713
17.52342221,2.956123608,4.510324053,3.057980935,6.199430397
17.53342421,2.594668324,5.419273726,1.92450739,6.309085522
17.54342521,2.288615117,6.138039787,0.89637699,6.611866853
17.55342721,1.9690411,6.78304673,0.318232227,7.070227546
17.56342921,1.754137799,7.517593256,0.118579341,7.72044486
17.57343021,1.747496677,8.098004839,0.035575045,8.284485053
17.58343221,1.771520401,8.114003406,0.18013985,8.307092522
17.59343421,1.584395759,7.057141981,0.491382462,7.249484091
17.60343521,0.205156505,4.566005918,1.369402118,4.771347965
17.61343721,-3.004116092,-2.04395972,3.047018575,4.742025625
17.62343821,-6.27840863,-11.75167087,4.92887652,14.20612568
17.63344021,-7.954440492,-21.39550236,7.197364644,23.93413258
17.64344221,-7.993731442,-29.26112773,6.743399684,31.07389222
17.65344321,-4.158233378,-29.84008161,1.823661485,30.18355705
17.66344521,1.057718992,-21.50236373,-1.940670117,21.61565673
17.67344721,2.347420272,-13.19077355,-3.305423115,13.7997359
17.68344821,3.743402079,-8.441706514,-4.237722182,10.16040143
17.69345021,6.810991158,-6.57330652,-10.71175994,14.29474589
17.70345221,9.980082639,-3.517958001,-24.20956844,26.42122787
17.71345321,12.45282336,1.254131278,-29.76021098,32.28491618
17.72345521,12.2987387,4.675426034,-23.95169688,27.32768497
17.73345721,10.35914009,5.237226514,-14.43896698,18.52630812
17.74345821,8.409624596,3.204854806,-5.940893894,10.78364968
17.75346021,5.790260848,0.939698426,3.067445531,6.619620526
17.76346221,2.859678463,-0.341935816,13.25185123,13.56120356
17.77346321,-2.811643002,-1.385129374,21.98636584,22.20865152
17.78346521,-10.13816913,-1.41492737,18.99247331,21.57541506
17.79346621,-15.03235061,-0.222235125,10.74340741,18.47814266
17.80346821,-16.95930872,0.350055259,5.118056166,17.71821633
17.81347021,-15.37899227,0.642310792,1.436013307,15.45923997
17.82347121,-9.182237665,1.307726857,-2.149963893,9.52081839
17.83347321,-3.962384983,1.712274073,-5.314793338,6.846853692
17.84347521,-1.163715052,2.404508393,-8.030210466,8.462870285
17.85347621,-0.155767778,3.232095814,-8.486072263,9.082077372
17.86347821,-0.908015727,3.5164693,-7.315901154,8.167769499
17.87348021,-1.539814833,3.560195364,-6.144214447,7.266181385
17.88348121,-1.498712123,3.500482428,-4.770551755,6.103906888
17.89348321,-1.678715441,3.290708304,-3.68592161,5.218511741
17.90348421,-1.714890849,2.959850623,-2.853742955,4.454819321
17.91348621,-1.583118874,2.588586928,-1.899072148,3.579598116
17.92348775,-1.078180081,2.254500414,-0.845016217,2.638047917
17.93348875,0.054502628,2.036926104,0.202644029,2.047706789
17.94349075,1.515967987,1.852804885,1.007509755,2.597329549
17.95349275,2.821879722,1.603887745,1.358491506,3.518658869
17.96349375,3.98419422,1.527915457,1.581645522,4.550816606
17.97349575,4.644054553,1.719252725,1.593121267,5.202029219
17.98349775,4.026161149,1.746506013,1.100227592,4.524462134
17.99349875,2.337180482,1.029323963,0.355289687,2.578400897
18.00350075,0.990421414,-0.032701138,0.151294951,1.002444065
18.01350275,0.631873074,-0.268717566,1.195742737,1.37886671
18.02350375,0.616853331,0.177550703,3.379464945,3.439885986
18.03350575,0.660716658,0.567334285,5.471453109,5.540326147
18.04350675,1.367608777,0.936978886,7.445730391,7.628052455
18.05350875,2.208839946,0.950433914,8.015718727,8.36863461
18.06351075,2.845294313,0.554340017,6.972609369,7.551176994
18.07351175,3.164232737,-0.307462386,5.176881495,6.075113492
18.08351375,3.814890722,-1.018545206,4.161337957,5.736511061
18.09351575,4.695288441,-1.386239761,3.409676923,5.966011309
18.10351675,6.162617973,-1.324009598,3.001436021,6.98136662
18.11351875,7.101065095,-1.722778012,2.340800932,7.672837713
18.12352075,7.031772081,-3.138906984,1.305535905,7.810440427
18.13352175,5.828055496,-5.603037681,0.076556425,8.084931849
18.14352375,3.796969298,-7.931389014,-2.658429872,9.186465965
18.15352575,0.045883686,-9.883064468,-5.530967824,11.32557609
18.16352675,-4.277696964,-11.61063837,-7.132430729,14.28205807
18.17352875,-8.242225828,-9.228903708,-9.476240931,15.58544489
18.18352975,-8.27353299,-2.332933795,-8.255994852,11.91869872
18.19353175,-4.634980551,2.734956184,-2.189639005,5.810124698
18.20353375,-3.724517034,3.78284798,4.231654818,6.788878293
18.21353475,-4.172957252,4.136875253,6.936705126,9.090939835
18.22353675,-4.209647945,4.190187827,6.524036711,8.822803685
18.23353875,-4.701661322,3.179504787,1.542723531,5.881740029
18.24353975,-4.056309392,2.601618032,-1.549742821,5.061992205
18.25354175,-4.269015895,0.197383874,-2.085854143,4.755443682
18.26354375,-5.997744033,-3.755194743,-2.729156331,7.5843731
18.27354475,-6.828358558,-6.669329495,-1.770565843,9.707797893
18.28354675,-5.819351331,-8.199468064,-0.837262225,10.0894566
18.29354775,-3.49317984,-6.97425536,-1.983287549,8.048352174
18.30354975,-1.873776947,-4.334248602,-3.449575984,5.847762432
18.31355175,-0.849510241,-2.517514021,-2.552584451,3.684458153
18.32355275,0.333247292,-0.967654549,-0.668710094,1.222531093
18.33355475,1.326222039,0.300560918,0.879982567,1.61974414
18.34355675,1.699748314,1.026986831,1.812299322,2.688545167
18.35355775,1.342153801,1.557298885,1.922430898,2.814657563
18.36355975,0.82041318,1.938492322,1.623889754,2.658542496
18.37356175,0.494679341,2.370001634,1.802232171,3.0182207
18.38356275,0.099103946,2.44841455,2.196282611,3.290624973
18.39356475,-0.266642316,2.484177876,2.262200905,3.370428871
18.40356675,-0.861684583,2.444090534,2.043025335,3.300004755
18.41356775,-1.722365052,2.34832893,1.220136005,3.15751833
18.42356975,-2.41614903,2.454472851,-0.022828261,3.444232024
18.43357075,-3.221586614,1.780219304,-1.01170294,3.817242973
18.44357275,-3.58969369,1.393301443,-2.02644117,4.351281824
18.45357475,-3.721304281,1.150618604,-2.663662838,4.718805828
18.46357575,-3.293888605,0.916814178,-1.221140849,3.63062465
18.47357775,-2.514848861,0.878457613,0.503155831,2.710962626
18.48357975,-1.742525082,0.951071261,1.358489898,2.40549891
18.49358075,-0.708291797,0.808501525,1.437954144,1.795289421
18.50358275,0.174944928,0.625542147,0.370300951,0.747684091
18.51358475,0.511051289,0.654426808,-0.609232655,1.029860328
18.52358575,0.441295651,0.728247321,-1.232347184,1.497920423
18.53358775,-0.046962351,0.917950877,-1.017976856,1.371537879
18.54358875,-0.448863556,1.20143851,-0.346026089,1.328407708
18.55359075,-0.472786416,1.462948798,0.580745166,1.64347532
18.56359275,0.123992985,1.804249606,1.648424233,2.447037669
18.57359375,1.264720586,2.398985113,2.450240051,3.654904108
18.58359575,2.52762795,3.234935807,3.515309213,5.404730483
18.59359775,3.588785325,4.043265424,4.164489314,6.824246965
18.60359875,4.297775133,4.582620782,3.590399741,7.236176796
18.61360075,4.580364341,4.840552574,2.323816232,7.057677281
18.62360275,4.145666834,4.546254609,1.889118287,6.436128679
18.63360375,2.668254071,3.560515206,2.736713857,5.223643466
18.64360575,0.608245535,2.58709121,4.134134079,4.914678844
18.65360675,-1.550031965,1.965932136,4.826635031,5.437268982
18.66360875,-3.440014032,1.658949805,4.681627007,6.041807877
18.67361075,-4.717647317,1.287621791,4.433785754,6.600956158
18.68361175,-5.484770143,0.56261909,4.391475887,7.048709401
18.69361375,-5.00006871,-0.441953609,4.377762997,6.660391802
18.70361575,-2.548700146,-1.72111214,4.349861253,5.327231209
18.71361675,0.099036594,-3.265400385,3.522604784,4.804309772
18.72361875,2.480791461,-4.510195414,1.700121805,5.420941164
18.73362075,4.10884107,-4.925741828,0.003203105,6.414477201
18.74362175,4.199210081,-4.718820561,-1.742374955,6.552595155
18.75362375,3.321401801,-4.557197673,-2.770344703,6.282879143
18.76362475,2.439780113,-4.70000539,-3.059412041,6.11576485
18.77362675,1.460030453,-4.951740303,-3.509318448,6.242334253
18.78362875,-0.211980644,-4.992774893,-3.841447606,6.303130701
18.79362975,-2.02785795,-4.329546856,-3.713950238,6.053974745
18.80363175,-3.411588963,-3.176092937,-3.293607354,5.707394764
18.81363375,-3.800401906,-2.309602236,-1.941701274,4.852578796
18.82363475,-3.549028351,-2.788644149,-1.043861603,4.632686637
18.83363675,-3.269541676,-4.168333274,-0.659537859,5.338529314
18.84363875,-2.020116821,-5.191306576,-0.513132642,5.594089831
18.85363975,-0.566615662,-5.638484087,-0.768108667,5.718701516
18.86364175,1.114266903,-5.050765239,-0.922726006,5.253878902
18.87364275,3.553232499,-4.132659996,-1.504356148,5.653974465
18.88364475,6.39967579,-3.549325975,-2.60708781,7.768556619
18.89364675,7.842288557,-2.583677605,-5.015856192,9.66103996
18.90364775,8.996918351,-0.838707072,-8.322391739,12.2845502
18.91364975,8.407282786,0.495131112,-10.81959078,13.71098477
18.92365175,5.115430182,0.992437388,-11.1625101,12.31885504
18.93365346,1.123851513,0.50271612,-9.903012829,9.979249912
18.94365546,-1.067704063,0.652303684,-8.509925394,8.60141397
18.95365746,-2.199106378,1.145253784,-6.636107955,7.084179831
18.96365846,-2.835914209,1.606769253,-4.321849289,5.41317819
18.97366046,-3.298056792,1.986476328,-1.687887383,4.203835228
18.98366146,-3.886596882,2.008255452,0.928709461,4.472273085
18.99366346,-4.552507036,1.858648592,2.890205022,5.703786459
19.00366546,-5.223412467,1.826580123,4.640442143,7.221782054
19.01366646,-5.492495484,1.938456654,4.983867245,7.665771557
19.02366846,-5.148604944,2.134959937,3.956031398,6.834937544
19.03367046,-3.919820761,2.502158064,2.967696417,5.516612348
19.04367146,-2.505310298,2.587706337,1.854671901,4.051248157
19.05367346,-1.24850041,2.604753894,0.584345005,2.947024806
19.06367546,-0.378894166,2.587052034,-0.189668765,2.621521172
19.07367646,0.093531331,2.552812493,-0.235152502,2.565325795
19.08367846,0.464546958,2.580114312,0.450040601,2.659949301
19.09367946,0.758807866,2.487374548,1.188045755,2.859068771
19.10368146,1.079525306,2.209908963,1.582533129,2.924633928
19.11368346,1.387691186,1.934899793,1.892374455,3.041480743
19.12368446,1.806225088,1.759948177,1.902109192,3.1587792
19.13368646,2.253150877,1.659322858,1.782435837,3.317697806
19.14368846,2.63298776,1.484884043,1.509896092,3.378948264
19.15368946,3.031500065,1.229313356,0.886970282,3.389383462
19.16369146,3.675818498,1.03585121,0.724748201,3.887144108
19.17369246,4.595620311,1.087855761,1.054394339,4.838894876
19.18369446,5.698023945,1.430754613,1.469185146,6.055826998
19.19369646,6.657833869,1.996794909,2.103587871,7.262163842
19.20369746,7.960771857,1.936039415,3.593728561,8.946341271
19.21369946,8.609949619,0.820420489,5.086253745,10.03365832
19.22370146,8.323129073,-0.660174621,5.753076065,10.13943748
19.23370246,7.785857078,-1.898163491,5.223804231,9.566123861
19.24370446,7.621938574,-2.688349198,3.486001799,8.801896248
19.25370646,7.869321989,-3.307723117,0.879141153,8.581383918
19.26370746,7.503652325,-4.099660649,-2.430512715,8.889286119
19.27370946,6.579694603,-6.020934091,-5.242051637,10.34519858
19.28371046,4.416025129,-8.959101484,-7.751617538,12.64335208
19.29371246,0.688132571,-11.08991107,-10.45921051,15.25957858
19.30371446,-3.991699706,-10.11763137,-12.81304576,16.80697096
19.31371546,-7.874210846,-6.403965892,-11.55880514,15.38245597
19.32371746,-8.951548051,-2.680060769,-7.198943392,11.79566548
19.33371946,-7.977032964,0.617663609,-2.36352175,8.34270929
19.34372046,-6.197540469,3.194009975,2.477349497,7.399220777
19.35372246,-4.657330071,4.393025984,6.494193692,9.119427197
19.36372346,-3.913924429,4.40393221,8.132626203,10.04256104
19.37372546,-3.622933356,3.578929258,7.756946105,9.279256092
19.38372746,-4.175661589,2.152139057,4.505294571,6.508880963
19.39372846,-4.647721634,0.715230249,1.163132231,4.844145671
19.40373046,-5.050912004,-0.891967605,-0.04785142,5.129289233
19.41373246,-4.896077734,-2.162164108,-0.416035826,5.368390505
19.42373346,-3.792930919,-3.237661194,-1.869965586,5.325931492
19.43373546,-2.694236174,-4.321514536,-2.957043959,5.888845848
19.44373746,-1.789847037,-4.49250057,-3.127644078,5.759190157
19.45373846,-0.827855297,-3.396983787,-3.606320832,5.022986481
19.46374046,-0.008543659,-1.455589492,-4.178751842,4.425017596
19.47374146,0.389777588,0.090148863,-3.747014196,3.76831113
19.48374346,0.449967145,0.656692604,-2.672220238,2.788274844
19.49374546,0.426726802,0.846226591,-1.467025477,1.746527685
19.50374646,0.367890656,0.857283091,0.034883027,0.933538782
19.51374846,0.309679249,0.837117798,1.439080464,1.693404862
19.52375046,0.166808053,1.092309585,2.175061166,2.439642644
19.53375146,0.025078854,1.416266382,2.100127489,2.533174863
19.54375346,-0.236584704,1.590512239,1.952991955,2.529798229
19.55375446,-0.38562749,1.773565757,1.863253859,2.601145709
19.56375646,-0.487554217,1.993791195,1.176070219,2.365597937
19.57375846,-0.630245794,1.824105581,0.465917107,1.985358829
19.58375946,-0.848709465,1.413410017,-0.114762717,1.652636111
19.59376146,-1.004638626,0.864040718,-0.993847736,1.656381132
19.60376346,-0.920080214,0.320919169,-1.535313939,1.818440432
19.61376446,-0.549326834,-0.128530571,-1.554239037,1.653462749
19.62376646,-0.120640137,-0.557013364,-1.510415618,1.614364664
19.63376746,0.277503099,-0.807731447,-1.637728213,1.847049474
19.64376946,0.623812979,-0.853352593,-1.757942874,2.051271905
19.65377146,0.917851474,-0.681698806,-1.828111508,2.156190223
19.66377246,1.165238325,-0.428529571,-1.651819126,2.066379532
19.67377446,1.411180767,-0.276427705,-1.245392322,1.902326331
19.68377646,1.654079075,-0.167112839,-0.531876184,1.745507537
19.69377746,1.712892416,-0.160851055,0.106415232,1.723716245
19.70377946,1.573148786,-0.243095067,0.558408802,1.686924037
19.71378046,1.186827707,-0.11777988,0.672876527,1.369377569
19.72378246,0.62049315,0.167066646,0.532494527,0.834549839
19.73378446,0.172949749,0.368068777,0.444319977,0.602334195
19.74378546,-0.074508237,0.454098861,0.520833718,0.69500001
19.75378746,-0.105448358,0.516750607,0.947500366,1.084392682
19.76378946,-0.162555263,0.690877765,1.358348542,1.532594878
